subject,trial,block,frame,cond,gamble_chosen,reaction_time,gamble_prob,sure_amount,endowment,trial_id
114,1,1,loss,ntc,1.0,11.112087000044994,0.67,-21,64,114_1
114,2,1,gain,ntc,0.0,6.144597199978307,0.66,42,64,114_2
114,3,1,gain,ntc,0.0,5.963848100043833,0.65,23,36,114_3
114,4,1,gain,ntc,0.0,10.031167199951597,0.15,10,70,114_4
114,5,1,loss,ntc,1.0,5.229006399982609,0.17,-18,22,114_5
114,6,1,gain,ntc,1.0,12.246244799927808,0.39,33,85,114_6
114,7,1,gain,ntc,0.0,3.745444000000134,0.1,7,69,114_7
114,8,1,gain,ntc,0.0,16.508695099968463,0.3,8,26,114_8
114,9,1,gain,ntc,1.0,4.7879117000848055,0.63,34,54,114_9
114,10,1,loss,ntc,0.0,7.17043709999416,0.29,-62,88,114_10
114,11,1,loss,ntc,1.0,7.052339999936521,0.2,-17,21,114_11
114,12,1,gain,ntc,1.0,13.114944400032982,0.34,7,22,114_12
114,15,1,loss,ntc,1.0,9.569254399975762,0.39,-28,46,114_15
114,16,1,loss,ntc,0.0,9.10255340009462,0.28,-56,78,114_16
114,17,1,gain,ntc,0.0,4.753047900041565,0.1,6,56,114_17
114,18,1,loss,ntc,0.0,5.824959599995054,0.51,-38,78,114_18
114,19,1,gain,ntc,1.0,7.867672999971546,0.54,38,71,114_19
114,21,1,loss,ntc,0.0,10.766781600075774,0.28,-15,21,114_21
114,23,1,gain,ntc,0.0,3.1931358000729237,0.41,16,39,114_23
114,24,1,loss,ntc,1.0,8.49906549998559,0.39,-52,85,114_24
114,25,1,loss,ntc,1.0,11.047596400021575,0.34,-15,22,114_25
114,26,1,gain,ntc,0.0,3.546137299970724,0.54,18,33,114_26
114,27,1,gain,ntc,0.0,5.362802800023928,0.2,4,21,114_27
114,28,1,loss,ntc,1.0,9.90268320008181,0.1,-70,78,114_28
114,29,1,loss,ntc,0.0,3.6058800000464544,0.63,-20,54,114_29
114,31,1,gain,ntc,0.0,8.724363300018013,0.71,63,89,114_31
114,32,1,gain,ntc,1.0,3.812956399982795,0.39,27,70,114_32
114,33,1,loss,ntc,0.0,3.6422165000112727,0.3,-18,26,114_33
114,34,1,loss,ntc,0.0,9.072775100008585,0.14,-39,45,114_34
114,35,1,loss,ntc,0.0,4.624636500026099,0.39,-43,70,114_35
114,36,1,gain,ntc,1.0,7.979962200042792,0.24,12,52,114_36
114,38,1,gain,ntc,0.0,5.421772799920291,0.51,40,78,114_38
114,39,1,loss,ntc,0.0,7.9116300999885425,0.51,-41,83,114_39
114,40,1,gain,ntc,0.0,5.889520399970934,0.5,43,86,114_40
114,41,2,gain,tc,0.0,0.6463719999883324,0.18,9,50,114_41
114,42,2,gain,tc,0.0,0.7556923000374809,0.54,38,71,114_42
114,43,2,gain,tc,0.0,0.6236669999780133,0.71,63,89,114_43
114,44,2,gain,tc,,,0.39,18,46,114_44
114,45,2,gain,tc,0.0,0.5235346999252215,0.3,8,26,114_45
114,46,2,loss,tc,0.0,0.4914719000225886,0.34,-50,76,114_46
114,47,2,loss,tc,1.0,0.6574384999694303,0.24,-30,40,114_47
114,48,2,gain,tc,0.0,0.4707336999708786,0.53,39,74,114_48
114,49,2,gain,tc,0.0,0.5113548000808805,0.38,20,53,114_49
114,51,2,loss,tc,1.0,0.6372453999938443,0.14,-39,45,114_51
114,52,2,gain,tc,1.0,0.6505020000040531,0.51,24,47,114_52
114,55,2,gain,tc,0.0,0.9770198999904096,0.14,6,45,114_55
114,56,2,loss,tc,1.0,0.6030394999543205,0.34,-15,22,114_56
114,57,2,gain,tc,0.0,0.606991000007838,0.63,34,54,114_57
114,58,2,loss,tc,0.0,0.7555813000071794,0.29,-51,72,114_58
114,59,2,gain,tc,0.0,0.720180100062862,0.28,6,21,114_59
114,61,2,loss,tc,0.0,0.6494152001105249,0.1,-50,56,114_61
114,62,2,gain,tc,0.0,0.8526763000991195,0.2,10,50,114_62
114,63,2,gain,tc,1.0,0.5766529000829905,0.26,9,35,114_63
114,64,2,loss,tc,1.0,0.6632693000137806,0.39,-52,85,114_64
114,65,2,loss,tc,1.0,0.577207800000906,0.64,-20,55,114_65
114,66,2,gain,tc,0.0,0.8071626999881119,0.48,31,64,114_66
114,67,2,gain,tc,0.0,0.518464200082235,0.45,16,35,114_67
114,68,2,loss,tc,1.0,0.5957410999108106,0.67,-21,64,114_68
114,69,2,loss,tc,0.0,0.7776637000497431,0.34,-46,69,114_69
114,70,2,gain,tc,1.0,0.5536156999878585,0.65,21,33,114_70
114,72,2,gain,tc,0.0,0.6108580000000075,0.34,23,69,114_72
114,73,2,loss,tc,0.0,0.7974848999874666,0.76,-17,71,114_73
114,74,2,loss,tc,1.0,0.926084699924104,0.27,-38,52,114_74
114,76,2,gain,tc,0.0,0.6459900999907404,0.52,41,78,114_76
114,77,2,gain,tc,0.0,0.552656100015156,0.29,21,72,114_77
114,78,2,loss,tc,1.0,0.8298982999986038,0.41,-23,39,114_78
114,79,2,loss,tc,0.0,0.679880200070329,0.54,-33,71,114_79
114,80,2,loss,tc,0.0,0.7558490999508649,0.41,-18,30,114_80
114,82,3,loss,ntc,1.0,2.7237390000373125,0.51,-23,47,114_82
114,83,3,gain,ntc,1.0,1.5150571999838576,0.58,19,32,114_83
114,84,3,loss,ntc,0.0,5.548290200065821,0.45,-19,35,114_84
114,85,3,loss,ntc,1.0,4.031559400027618,0.46,-24,45,114_85
114,86,3,gain,ntc,1.0,1.9967894000001247,0.48,43,89,114_86
114,87,3,loss,ntc,0.0,2.938749899971299,0.46,-44,81,114_87
114,88,3,loss,ntc,0.0,3.534005200024694,0.12,-75,85,114_88
114,89,3,loss,ntc,0.0,3.62921079993248,0.35,-53,82,114_89
114,91,3,loss,ntc,0.0,2.7430419999873266,0.25,-59,79,114_91
114,92,3,gain,ntc,1.0,2.193086300045252,0.36,12,32,114_92
114,93,3,gain,ntc,0.0,2.028307699947618,0.34,23,69,114_93
114,94,3,gain,ntc,0.0,3.1855447000125423,0.2,9,44,114_94
114,95,3,gain,ntc,0.0,2.754132300033234,0.28,22,78,114_95
114,97,3,gain,ntc,0.0,1.4266580999828875,0.51,42,83,114_97
114,98,3,loss,ntc,0.0,3.6352353000547737,0.34,-50,76,114_98
114,99,3,loss,ntc,0.0,2.9764360999688506,0.18,-41,50,114_99
114,100,3,loss,ntc,0.0,3.8070559999905527,0.24,-40,52,114_100
114,101,3,loss,ntc,1.0,1.1410065999953076,0.58,-13,32,114_101
114,102,3,gain,ntc,1.0,3.883577500004321,0.39,9,22,114_102
114,103,3,gain,ntc,0.0,2.5281821999233216,0.43,16,38,114_103
114,105,3,gain,ntc,1.0,1.2266851000022143,0.78,55,71,114_105
114,106,3,loss,ntc,1.0,1.9346474999329075,0.54,-33,71,114_106
114,107,3,gain,ntc,0.0,2.258602499961853,0.29,14,47,114_107
114,108,3,gain,ntc,0.0,2.394490899983793,0.38,32,84,114_108
114,109,3,loss,ntc,0.0,2.801782700000331,0.78,-16,71,114_109
114,110,3,loss,ntc,0.0,7.271043399930932,0.29,-33,47,114_110
114,111,3,loss,ntc,1.0,5.394908999907784,0.59,-27,65,114_111
114,112,3,gain,ntc,0.0,1.7228406999493018,0.39,34,86,114_112
114,113,3,gain,ntc,0.0,4.137471100082621,0.1,8,78,114_113
114,114,3,loss,ntc,0.0,7.698009200044908,0.36,-20,32,114_114
114,115,3,gain,ntc,0.0,3.9166025000158697,0.41,12,30,114_115
114,116,3,gain,ntc,0.0,6.771858599968255,0.45,16,35,114_116
114,117,3,loss,ntc,0.0,4.385732599999756,0.25,-66,88,114_117
114,118,3,loss,ntc,1.0,1.7476563999662176,0.76,-17,71,114_118
114,119,3,gain,ntc,0.0,3.1436385000124574,0.25,20,79,114_119
114,120,3,gain,ntc,0.0,1.916878500021994,0.38,20,53,114_120
114,122,4,loss,tc,0.0,0.7527954999823123,0.57,-18,42,114_122
114,123,4,gain,tc,0.0,0.6054300999967381,0.39,34,86,114_123
114,124,4,gain,tc,0.0,0.3886595999356359,0.45,26,57,114_124
114,125,4,loss,tc,1.0,0.7252728000748903,0.66,-22,64,114_125
114,126,4,gain,tc,0.0,0.8392657999647781,0.15,10,70,114_126
114,127,4,gain,tc,0.0,0.5293012999463826,0.39,27,70,114_127
114,128,4,gain,tc,1.0,0.6611497000558302,0.27,14,52,114_128
114,129,4,gain,tc,0.0,0.636410600040108,0.25,22,88,114_129
114,130,4,loss,tc,0.0,0.9690548001090064,0.1,-70,78,114_130
114,131,4,loss,tc,1.0,0.799695200053975,0.52,-37,78,114_131
114,132,4,loss,tc,0.0,0.8503409000113606,0.2,-40,50,114_132
114,133,4,gain,tc,0.0,0.5469163999659941,0.12,10,85,114_133
114,134,4,loss,tc,0.0,0.6961818999843672,0.2,-35,44,114_134
114,135,4,gain,tc,0.0,0.6248357999138534,0.46,37,81,114_135
114,136,4,gain,tc,0.0,0.8387867999263108,0.43,16,38,114_136
114,137,4,loss,tc,,,0.39,-13,22,114_137
114,138,4,gain,tc,0.0,0.5780345000093803,0.39,9,22,114_138
114,139,4,gain,tc,0.0,0.5533093999838457,0.64,35,55,114_139
114,140,4,gain,tc,1.0,0.8085477000568062,0.29,26,88,114_140
114,141,4,loss,tc,1.0,0.6551848000381142,0.35,-33,51,114_141
114,142,4,gain,tc,0.0,0.4791666000382975,0.17,4,22,114_142
114,143,4,gain,tc,0.0,0.453060399973765,0.58,19,32,114_143
114,144,4,loss,tc,0.0,0.6904368000105023,0.21,-55,69,114_144
114,145,4,gain,tc,0.0,0.5750235000159591,0.4,26,66,114_145
114,146,4,loss,tc,1.0,0.7729636000003666,0.18,-41,50,114_146
114,147,4,gain,tc,1.0,0.5242392000509426,0.34,7,22,114_147
114,148,4,loss,tc,0.0,0.8595329000381753,0.28,-56,78,114_148
114,149,4,gain,tc,1.0,0.4554873000597581,0.66,42,64,114_149
114,150,4,loss,tc,1.0,0.5401004999876022,0.51,-41,83,114_150
114,151,4,gain,tc,0.0,0.7967648999765515,0.36,12,32,114_151
114,152,4,loss,tc,1.0,0.6966955000534654,0.78,-16,71,114_152
114,153,4,loss,tc,0.0,0.7019345000153407,0.15,-60,70,114_153
114,154,4,loss,tc,1.0,0.5425520000280812,0.65,-12,33,114_154
114,155,4,loss,tc,1.0,0.6878416000399739,0.17,-18,22,114_155
114,157,4,loss,tc,1.0,0.6984678999288008,0.38,-52,84,114_157
114,158,4,loss,tc,1.0,0.5563972999807447,0.4,-40,66,114_158
114,159,4,gain,tc,0.0,0.4698204998858273,0.1,6,56,114_159
114,160,4,loss,tc,1.0,0.4296554999891668,0.59,-27,65,114_160
114,161,5,gain,ntc,1.0,2.324175599962473,0.35,18,51,114_161
114,162,5,loss,ntc,1.0,1.3867708999896422,0.65,-12,33,114_162
114,164,5,loss,ntc,0.0,5.045355599955656,0.21,-55,69,114_164
114,166,5,loss,ntc,1.0,1.8864536000182848,0.54,-15,33,114_166
114,167,5,gain,ntc,1.0,3.875712599954568,0.18,9,50,114_167
114,168,5,gain,ntc,0.0,3.916968100005761,0.51,24,47,114_168
114,169,5,loss,ntc,1.0,6.250949699897319,0.5,-43,86,114_169
114,170,5,gain,ntc,1.0,4.237479700008407,0.35,29,82,114_170
114,171,5,loss,ntc,0.0,2.128050899947993,0.1,-62,69,114_171
114,172,5,loss,ntc,0.0,3.854695399990305,0.45,-31,57,114_172
114,173,5,gain,ntc,1.0,2.020591099979356,0.64,35,55,114_173
114,174,5,gain,ntc,0.0,1.9031747999833897,0.17,4,22,114_174
114,175,5,loss,ntc,0.0,8.025765600032173,0.43,-22,38,114_175
114,176,5,gain,ntc,0.0,9.777711099945009,0.46,21,45,114_176
114,177,5,loss,ntc,0.0,3.863534699892625,0.26,-26,35,114_177
114,178,5,loss,ntc,1.0,1.4981820998946205,0.64,-20,55,114_178
114,179,5,gain,ntc,1.0,1.2697316000703722,0.59,38,65,114_179
114,180,5,loss,ntc,0.0,5.430707700084895,0.29,-51,72,114_180
114,181,5,gain,ntc,1.0,3.56076739996206,0.25,22,88,114_181
114,183,5,loss,ntc,0.0,4.491126100067049,0.24,-30,40,114_183
114,184,5,loss,ntc,0.0,2.941688199993223,0.39,-52,86,114_184
114,185,5,gain,ntc,1.0,2.4336240999400616,0.4,26,66,114_185
114,186,5,gain,ntc,1.0,3.19888170005288,0.2,6,31,114_186
114,187,5,gain,ntc,1.0,1.881470900028944,0.65,21,33,114_187
114,188,5,loss,ntc,0.0,2.376760600018315,0.28,-56,78,114_188
114,189,5,gain,ntc,1.0,3.897428500000387,0.45,26,57,114_189
114,190,5,gain,ntc,0.0,2.620645000017248,0.52,41,78,114_190
114,191,5,gain,ntc,1.0,3.5472305000294,0.26,9,35,114_191
114,192,5,loss,ntc,0.0,3.2737550999736413,0.38,-33,53,114_192
114,193,5,loss,ntc,0.0,3.221043600002304,0.2,-25,31,114_193
114,194,5,loss,ntc,1.0,2.9555722000077367,0.38,-52,84,114_194
114,195,5,loss,ntc,0.0,3.1081862000282854,0.35,-28,43,114_195
114,196,5,gain,ntc,1.0,1.7660839000018314,0.46,37,81,114_196
114,197,5,gain,ntc,1.0,2.664638699963689,0.53,39,74,114_197
114,198,5,gain,ntc,1.0,2.5458705000346527,0.76,54,71,114_198
114,199,5,loss,ntc,0.0,3.477908600005321,0.52,-37,78,114_199
114,201,6,loss,tc,1.0,0.668570899986662,0.5,-43,86,114_201
114,202,6,gain,tc,0.0,0.7244807999813929,0.2,4,21,114_202
114,204,6,gain,tc,1.0,0.640471399994567,0.51,42,83,114_204
114,205,6,loss,tc,0.0,0.6090816999785602,0.24,-40,52,114_205
114,206,6,loss,tc,1.0,0.6570340999169275,0.39,-43,70,114_206
114,207,6,gain,tc,1.0,0.703046000096947,0.67,43,64,114_207
114,208,6,gain,tc,0.0,0.4796526000136509,0.39,33,85,114_208
114,209,6,gain,tc,0.0,0.4682859000749886,0.21,14,69,114_209
114,210,6,loss,tc,1.0,0.6875670999288559,0.2,-25,31,114_210
114,212,6,gain,tc,1.0,0.5787467999616638,0.76,54,71,114_212
114,214,6,gain,tc,0.0,0.417320599895902,0.59,38,65,114_214
114,215,6,gain,tc,1.0,0.6412828000029549,0.41,12,30,114_215
114,216,6,loss,tc,0.0,0.6732271999353543,0.12,-75,85,114_216
114,217,6,loss,tc,0.0,0.6019233000697568,0.25,-59,79,114_217
114,218,6,gain,tc,0.0,0.7171240000752732,0.1,8,78,114_218
114,219,6,loss,tc,0.0,0.8638125999132171,0.35,-28,43,114_219
114,220,6,loss,tc,1.0,0.8643729999894276,0.45,-31,57,114_220
114,221,6,loss,tc,1.0,0.8843139000236988,0.2,-17,21,114_221
114,223,6,gain,tc,0.0,0.9509641999611632,0.65,23,36,114_223
114,224,6,loss,tc,1.0,0.577524800086394,0.71,-26,89,114_224
114,225,6,loss,tc,1.0,0.6621615999611095,0.39,-52,86,114_225
114,226,6,loss,tc,,,0.29,-62,88,114_226
114,227,6,loss,tc,0.0,0.6820171000435948,0.26,-26,35,114_227
114,228,6,gain,tc,0.0,0.455328399897553,0.34,26,76,114_228
114,229,6,loss,tc,1.0,0.5926196000073105,0.52,-40,83,114_229
114,230,6,loss,tc,1.0,0.497233200003393,0.54,-15,33,114_230
114,232,6,gain,tc,0.0,0.5651476999046281,0.28,22,78,114_232
114,233,6,gain,tc,1.0,0.6377587000606582,0.35,18,51,114_233
114,234,6,gain,tc,0.0,0.6310491000767797,0.35,29,82,114_234
114,235,6,loss,tc,1.0,0.4569974999176338,0.39,-28,46,114_235
114,236,6,gain,tc,1.0,0.4509408000158146,0.85,34,40,114_236
114,237,6,loss,tc,1.0,0.4969189000548795,0.46,-44,81,114_237
114,238,6,loss,tc,1.0,0.5975024999352172,0.51,-38,78,114_238
114,239,6,gain,tc,0.0,0.6374652000376955,0.28,22,78,114_239
114,240,6,loss,tc,1.0,0.5920796999707818,0.48,-33,64,114_240
114,241,7,gain,ntc,1.0,6.435064399964176,0.28,22,78,114_241
114,243,7,loss,ntc,1.0,3.3955594999715686,0.27,-38,52,114_243
114,244,7,gain,ntc,0.0,2.322189799975604,0.12,10,85,114_244
114,245,7,gain,ntc,1.0,7.507410399965011,0.24,10,40,114_245
114,246,7,loss,ntc,1.0,6.6366631999844685,0.15,-60,70,114_246
114,247,7,loss,ntc,1.0,2.313931899960153,0.41,-18,30,114_247
114,248,7,loss,ntc,0.0,5.109828700078651,0.35,-33,51,114_248
114,249,7,loss,ntc,1.0,1.883786299964413,0.41,-23,39,114_249
114,250,7,loss,ntc,0.0,2.127712699933909,0.39,-13,22,114_250
114,251,7,loss,ntc,1.0,2.254259999957867,0.48,-33,64,114_251
114,252,7,gain,ntc,0.0,5.273539200075902,0.35,15,43,114_252
114,253,7,gain,ntc,0.0,3.0167372000869364,0.21,14,69,114_253
114,254,7,loss,ntc,1.0,4.496026000007987,0.2,-40,50,114_254
114,255,7,gain,ntc,0.0,1.7292717000236737,0.48,31,64,114_255
114,256,7,loss,ntc,1.0,3.0518966000527143,0.48,-46,89,114_256
114,257,7,loss,ntc,0.0,4.770454699988477,0.34,-46,69,114_257
114,258,7,loss,ntc,1.0,11.740451300051063,0.4,-40,66,114_258
114,259,7,gain,ntc,0.0,0.897587800049223,0.29,26,88,114_259
114,260,7,loss,ntc,1.0,0.8308936000103131,0.65,-13,36,114_260
114,261,7,gain,ntc,1.0,1.346797699923627,0.85,34,40,114_261
114,262,7,gain,ntc,0.0,1.33205110009294,0.34,26,76,114_262
114,263,7,gain,ntc,0.0,2.14270519989077,0.14,6,45,114_263
114,264,7,loss,ntc,1.0,1.7939621999394149,0.53,-35,74,114_264
114,265,7,gain,ntc,0.0,1.5025260000256822,0.2,10,50,114_265
114,266,7,gain,ntc,1.0,1.0977568000089375,0.57,24,42,114_266
114,267,7,gain,ntc,0.0,2.3277445998974144,0.29,21,72,114_267
114,268,7,gain,ntc,1.0,1.762335400097072,0.52,43,83,114_268
114,269,7,loss,ntc,1.0,0.8395887999795377,0.66,-22,64,114_269
114,271,7,loss,ntc,0.0,5.983410099986941,0.1,-50,56,114_271
114,272,7,loss,ntc,1.0,3.5887359000043944,0.71,-26,89,114_272
114,273,7,loss,ntc,1.0,2.9812877000076696,0.52,-40,83,114_273
114,274,7,loss,ntc,1.0,0.683226800058037,0.85,-6,40,114_274
114,275,7,gain,ntc,0.0,2.72313319996465,0.39,18,46,114_275
114,276,7,loss,ntc,1.0,2.2511001999955624,0.57,-18,42,114_276
114,277,7,gain,ntc,0.0,2.350987400044687,0.27,14,52,114_277
114,278,7,gain,ntc,1.0,1.3502344000153244,0.67,43,64,114_278
114,279,7,gain,ntc,0.0,3.027483500074595,0.28,6,21,114_279
114,280,7,loss,ntc,0.0,2.217427500057965,0.2,-35,44,114_280
114,281,8,gain,tc,1.0,0.4992209000047296,0.54,18,33,114_281
114,283,8,gain,tc,1.0,0.6517796000698581,0.51,40,78,114_283
114,284,8,loss,tc,1.0,0.7798278999980539,0.53,-35,74,114_284
114,285,8,gain,tc,0.0,0.911052400013432,0.41,16,39,114_285
114,286,8,gain,tc,0.0,0.4177176000084728,0.24,12,52,114_286
114,287,8,gain,tc,0.0,0.6503045000135899,0.29,14,47,114_287
114,288,8,loss,tc,1.0,0.5775713999755681,0.35,-53,82,114_288
114,289,8,loss,tc,1.0,0.714203399955295,0.85,-6,40,114_289
114,290,8,gain,tc,0.0,0.458090899977833,0.5,43,86,114_290
114,291,8,loss,tc,1.0,0.8147976999171078,0.3,-18,26,114_291
114,292,8,loss,tc,1.0,0.6894152000313625,0.25,-66,88,114_292
114,293,8,loss,tc,1.0,0.4479912999086082,0.65,-13,36,114_293
114,294,8,loss,tc,1.0,0.4299525999231264,0.48,-46,89,114_294
114,295,8,loss,tc,1.0,0.4246008000336587,0.58,-13,32,114_295
114,296,8,loss,tc,0.0,0.6418844999279827,0.1,-62,69,114_296
114,297,8,gain,tc,0.0,0.3938167999731377,0.38,32,84,114_297
114,298,8,gain,tc,1.0,0.5164277000585571,0.46,21,45,114_298
114,299,8,gain,tc,1.0,0.5290406999411061,0.57,24,42,114_299
114,300,8,gain,tc,0.0,0.6083508000010625,0.24,10,40,114_300
114,301,8,gain,tc,1.0,0.5629815999418497,0.78,55,71,114_301
114,303,8,loss,tc,0.0,0.9569256999529898,0.36,-20,32,114_303
114,304,8,loss,tc,1.0,0.4862261000089347,0.43,-22,38,114_304
114,305,8,gain,tc,0.0,0.7241048000287265,0.1,7,69,114_305
114,307,8,loss,tc,0.0,0.7460171000566334,0.51,-23,47,114_307
114,308,8,loss,tc,1.0,0.5193270000163466,0.63,-20,54,114_308
114,309,8,gain,tc,1.0,0.4986270000226795,0.48,43,89,114_309
114,310,8,loss,tc,1.0,0.8105352000566199,0.45,-19,35,114_310
114,311,8,gain,tc,0.0,0.5178304999135435,0.35,15,43,114_311
114,312,8,loss,tc,0.0,0.7891552000073716,0.28,-15,21,114_312
114,313,8,gain,tc,1.0,0.5651737001026049,0.2,9,44,114_313
114,314,8,gain,tc,0.0,0.4983976000221446,0.52,43,83,114_314
114,315,8,gain,tc,0.0,0.4623301998944953,0.25,20,79,114_315
114,316,8,gain,tc,0.0,0.4509568000212312,0.2,6,31,114_316
114,317,8,loss,tc,,,0.28,-56,78,114_317
114,318,8,loss,tc,0.0,0.6302441000007093,0.46,-24,45,114_318
114,319,8,loss,tc,1.0,0.5028346999315545,0.29,-33,47,114_319
114,320,8,loss,tc,1.0,0.3987869000993669,0.38,-33,53,114_320
115,1,1,loss,ntc,1.0,1.4750289998482913,0.35,-28,43,115_1
115,2,1,gain,ntc,0.0,2.763657500036061,0.2,4,21,115_2
115,3,1,loss,ntc,1.0,2.457611500052735,0.25,-66,88,115_3
115,4,1,gain,ntc,1.0,2.516174599993974,0.2,6,31,115_4
115,5,1,loss,ntc,0.0,1.4094014998991042,0.39,-43,70,115_5
115,6,1,loss,ntc,1.0,1.218004500027746,0.1,-62,69,115_6
115,7,1,loss,ntc,1.0,2.9486124999821186,0.24,-40,52,115_7
115,8,1,loss,ntc,0.0,3.027908599935472,0.27,-38,52,115_8
115,9,1,gain,ntc,1.0,2.8031753001268958,0.41,16,39,115_9
115,10,1,loss,ntc,1.0,1.3764074000064284,0.54,-15,33,115_10
115,11,1,gain,ntc,0.0,4.95100130001083,0.1,6,56,115_11
115,12,1,gain,ntc,1.0,2.072902000043541,0.28,6,21,115_12
115,15,1,loss,ntc,1.0,1.5560794998891652,0.28,-15,21,115_15
115,16,1,loss,ntc,1.0,1.6879753000102935,0.43,-22,38,115_16
115,17,1,loss,ntc,1.0,3.1319514999631792,0.5,-43,86,115_17
115,18,1,gain,ntc,0.0,2.276452299905941,0.85,34,40,115_18
115,19,1,loss,ntc,0.0,2.865759500069544,0.41,-18,30,115_19
115,20,1,loss,ntc,1.0,1.5317119001410902,0.46,-24,45,115_20
115,21,1,gain,ntc,0.0,4.028300100006163,0.27,14,52,115_21
115,22,1,gain,ntc,1.0,2.961646899813786,0.67,43,64,115_22
115,23,1,gain,ntc,1.0,3.9681086998898536,0.51,42,83,115_23
115,24,1,loss,ntc,0.0,1.8572431998327372,0.45,-19,35,115_24
115,25,1,gain,ntc,1.0,2.701269800076261,0.45,26,57,115_25
115,26,1,gain,ntc,1.0,2.467851399909705,0.65,23,36,115_26
115,27,1,loss,ntc,1.0,2.439115599961952,0.39,-13,22,115_27
115,28,1,gain,ntc,1.0,4.593061999883503,0.17,4,22,115_28
115,29,1,gain,ntc,1.0,1.374353799968958,0.54,38,71,115_29
115,30,1,gain,ntc,0.0,3.567572799976915,0.52,41,78,115_30
115,31,1,loss,ntc,0.0,1.692851899890229,0.39,-28,46,115_31
115,32,1,gain,ntc,1.0,1.2488094000145793,0.52,43,83,115_32
115,33,1,loss,ntc,0.0,2.943411099957302,0.35,-53,82,115_33
115,34,1,loss,ntc,1.0,3.81264890008606,0.26,-26,35,115_34
115,35,1,loss,ntc,1.0,2.0352312999311835,0.53,-35,74,115_35
115,36,1,gain,ntc,1.0,1.6605081998277456,0.65,21,33,115_36
115,37,1,gain,ntc,1.0,1.4924083000514656,0.63,34,54,115_37
115,38,1,gain,ntc,0.0,1.955674699973315,0.34,26,76,115_38
115,39,1,loss,ntc,1.0,4.292261000024155,0.1,-70,78,115_39
115,40,1,gain,ntc,1.0,2.8995310000609607,0.59,38,65,115_40
115,41,2,loss,tc,,,0.25,-66,88,115_41
115,42,2,loss,tc,0.0,0.3173866998404264,0.51,-23,47,115_42
115,43,2,gain,tc,0.0,0.3260184999089688,0.28,6,21,115_43
115,44,2,loss,tc,1.0,0.4166268999688327,0.1,-70,78,115_44
115,45,2,gain,tc,0.0,0.4092505001462996,0.59,38,65,115_45
115,46,2,loss,tc,1.0,0.3845534999854862,0.41,-18,30,115_46
115,47,2,loss,tc,0.0,0.353186700027436,0.4,-40,66,115_47
115,48,2,gain,tc,0.0,0.4931139999534935,0.65,21,33,115_48
115,49,2,gain,tc,1.0,0.3244296000339091,0.1,6,56,115_49
115,50,2,gain,tc,0.0,0.3337576000485569,0.2,6,31,115_50
115,51,2,loss,tc,1.0,0.479665599996224,0.63,-20,54,115_51
115,52,2,loss,tc,1.0,0.3829465000890195,0.29,-62,88,115_52
115,53,2,gain,tc,1.0,0.3608530000783503,0.29,21,72,115_53
115,54,2,loss,tc,0.0,0.5721787000074983,0.17,-18,22,115_54
115,56,2,gain,tc,0.0,0.5160464998334646,0.18,9,50,115_56
115,57,2,loss,tc,0.0,0.6779960999265313,0.1,-62,69,115_57
115,58,2,loss,tc,1.0,0.5026147000025958,0.71,-26,89,115_58
115,59,2,gain,tc,0.0,0.629929999820888,0.58,19,32,115_59
115,60,2,gain,tc,0.0,0.6351631998550147,0.48,43,89,115_60
115,61,2,loss,tc,1.0,0.5758593000937253,0.65,-12,33,115_61
115,62,2,loss,tc,1.0,0.6404657999519259,0.14,-39,45,115_62
115,63,2,loss,tc,1.0,0.8344292000401765,0.28,-56,78,115_63
115,64,2,loss,tc,1.0,0.7763606999069452,0.27,-38,52,115_64
115,65,2,loss,tc,0.0,0.6843177999835461,0.38,-33,53,115_65
115,66,2,gain,tc,0.0,0.7916249998379499,0.34,23,69,115_66
115,67,2,gain,tc,0.0,0.9395600000862032,0.3,8,26,115_67
115,68,2,loss,tc,1.0,0.6461994999554008,0.35,-53,82,115_68
115,69,2,loss,tc,1.0,0.832792499801144,0.39,-52,86,115_69
115,70,2,gain,tc,0.0,0.6860591999720782,0.35,29,82,115_70
115,71,2,gain,tc,1.0,0.6614033000078052,0.39,9,22,115_71
115,72,2,loss,tc,1.0,0.934612999903038,0.25,-59,79,115_72
115,73,2,loss,tc,0.0,0.5005912999622524,0.34,-46,69,115_73
115,74,2,gain,tc,0.0,0.4712829000782221,0.35,18,51,115_74
115,75,2,gain,tc,1.0,0.7198084997944534,0.34,7,22,115_75
115,76,2,gain,tc,0.0,0.6430944998282939,0.25,20,79,115_76
115,77,2,gain,tc,1.0,0.7084031999111176,0.2,4,21,115_77
115,78,2,loss,tc,0.0,0.6363425999879837,0.57,-18,42,115_78
115,80,2,gain,tc,0.0,0.9575577999930828,0.45,26,57,115_80
115,81,3,loss,ntc,1.0,1.1979012999217955,0.29,-33,47,115_81
115,82,3,loss,ntc,1.0,0.7071704999543726,0.76,-17,71,115_82
115,83,3,gain,ntc,1.0,0.7097596998792142,0.78,55,71,115_83
115,84,3,gain,ntc,0.0,1.2157151999417692,0.54,18,33,115_84
115,85,3,gain,ntc,0.0,1.691640299977735,0.29,21,72,115_85
115,86,3,gain,ntc,1.0,1.6196028999984264,0.66,42,64,115_86
115,87,3,loss,ntc,1.0,2.7574906998779625,0.15,-60,70,115_87
115,89,3,loss,ntc,1.0,2.5713837000075728,0.52,-40,83,115_89
115,90,3,gain,ntc,0.0,1.597964399959892,0.39,33,85,115_90
115,91,3,loss,ntc,0.0,2.1045711000915617,0.48,-46,89,115_91
115,92,3,loss,ntc,1.0,2.81315469997935,0.28,-56,78,115_92
115,93,3,loss,ntc,0.0,1.1477053000126034,0.29,-62,88,115_93
115,95,3,gain,ntc,1.0,1.4409035998396575,0.57,24,42,115_95
115,96,3,loss,ntc,1.0,1.708864700049162,0.51,-23,47,115_96
115,97,3,loss,ntc,0.0,0.9608328000176698,0.57,-18,42,115_97
115,98,3,loss,ntc,0.0,2.2073686998337507,0.39,-52,86,115_98
115,100,3,loss,ntc,0.0,1.107249200111255,0.63,-20,54,115_100
115,101,3,loss,ntc,1.0,1.3491920998785645,0.28,-56,78,115_101
115,102,3,loss,ntc,1.0,1.1071391000878066,0.17,-18,22,115_102
115,103,3,gain,ntc,1.0,1.6044244999065995,0.51,24,47,115_103
115,104,3,gain,ntc,1.0,1.4636458999011666,0.39,9,22,115_104
115,105,3,gain,ntc,1.0,1.1635950999334457,0.28,22,78,115_105
115,106,3,gain,ntc,0.0,1.9035120999906208,0.35,15,43,115_106
115,107,3,loss,ntc,1.0,2.372061900096014,0.34,-46,69,115_107
115,108,3,loss,ntc,1.0,2.1380425000097603,0.21,-55,69,115_108
115,109,3,gain,ntc,1.0,2.023970700101927,0.29,14,47,115_109
115,110,3,loss,ntc,0.0,1.2952441000379622,0.45,-31,57,115_110
115,112,3,gain,ntc,0.0,1.5364301998633891,0.25,20,79,115_112
115,113,3,gain,ntc,1.0,2.1683305001351982,0.24,12,52,115_113
115,114,3,gain,ntc,1.0,1.7342405000235883,0.45,16,35,115_114
115,115,3,gain,ntc,0.0,4.161546099931002,0.1,8,78,115_115
115,116,3,gain,ntc,1.0,1.7614706000313165,0.2,9,44,115_116
115,117,3,loss,ntc,1.0,2.303374800132588,0.24,-30,40,115_117
115,118,3,loss,ntc,1.0,1.5586119999643415,0.51,-41,83,115_118
115,119,3,gain,ntc,0.0,1.8786011999472976,0.24,10,40,115_119
115,120,3,gain,ntc,0.0,1.5238870999310166,0.48,31,64,115_120
115,121,4,gain,tc,0.0,0.6032620999030769,0.41,16,39,115_121
115,122,4,loss,tc,,,0.38,-52,84,115_122
115,123,4,loss,tc,1.0,0.5433222998399287,0.85,-6,40,115_123
115,124,4,loss,tc,0.0,0.5285076999571174,0.67,-21,64,115_124
115,125,4,loss,tc,1.0,0.6951324001420289,0.28,-15,21,115_125
115,126,4,gain,tc,0.0,0.5244219000451267,0.24,10,40,115_126
115,127,4,loss,tc,0.0,0.7443913999013603,0.2,-25,31,115_127
115,129,4,gain,tc,0.0,0.4963356000371277,0.38,32,84,115_129
115,130,4,gain,tc,0.0,0.4742432001512497,0.65,23,36,115_130
115,131,4,gain,tc,0.0,0.5341880999039859,0.54,38,71,115_131
115,132,4,loss,tc,1.0,0.5494659999385476,0.51,-38,78,115_132
115,133,4,loss,tc,0.0,0.5467869001440704,0.18,-41,50,115_133
115,134,4,loss,tc,0.0,0.6447240998968482,0.52,-37,78,115_134
115,135,4,loss,tc,1.0,0.775971099967137,0.29,-51,72,115_135
115,136,4,gain,tc,0.0,0.7032432998530567,0.48,31,64,115_136
115,137,4,gain,tc,0.0,0.5291877998970449,0.29,14,47,115_137
115,139,4,loss,tc,0.0,0.777753199916333,0.46,-24,45,115_139
115,140,4,loss,tc,0.0,0.6617306999396533,0.54,-15,33,115_140
115,141,4,loss,tc,1.0,0.8436660999432206,0.34,-50,76,115_141
115,142,4,gain,tc,1.0,0.8242820000741631,0.28,22,78,115_142
115,143,4,loss,tc,0.0,0.8322419999167323,0.24,-30,40,115_143
115,144,4,gain,tc,1.0,0.7068605001550168,0.1,8,78,115_144
115,145,4,loss,tc,1.0,0.8974776000250131,0.59,-27,65,115_145
115,146,4,loss,tc,1.0,0.931386300129816,0.51,-41,83,115_146
115,147,4,gain,tc,1.0,0.7087135000620037,0.41,12,30,115_147
115,148,4,gain,tc,,,0.39,27,70,115_148
115,149,4,gain,tc,0.0,0.7012271999847144,0.78,55,71,115_149
115,150,4,loss,tc,1.0,0.9038646002300084,0.21,-55,69,115_150
115,151,4,loss,tc,1.0,0.9057810001540928,0.39,-13,22,115_151
115,152,4,gain,tc,0.0,0.5890615999232978,0.29,26,88,115_152
115,153,4,gain,tc,0.0,0.6197013999335468,0.85,34,40,115_153
115,154,4,loss,tc,0.0,0.8016743001062423,0.58,-13,32,115_154
115,155,4,loss,tc,1.0,0.656241400167346,0.54,-33,71,115_155
115,156,4,gain,tc,0.0,0.8422182998619974,0.2,9,44,115_156
115,157,4,gain,tc,0.0,0.5441474998369813,0.51,24,47,115_157
115,158,4,gain,tc,1.0,0.9035018999129534,0.54,18,33,115_158
115,159,4,gain,tc,0.0,0.4860936000477522,0.35,15,43,115_159
115,160,4,loss,tc,1.0,0.8314034999348223,0.39,-52,85,115_160
115,161,5,loss,ntc,0.0,3.517548599978909,0.38,-52,84,115_161
115,162,5,gain,ntc,0.0,1.6154849999584258,0.5,43,86,115_162
115,163,5,gain,ntc,0.0,1.2994420998729763,0.53,39,74,115_163
115,164,5,gain,ntc,0.0,3.500703300116584,0.25,22,88,115_164
115,165,5,gain,ntc,1.0,0.9532981999218464,0.3,8,26,115_165
115,166,5,loss,ntc,0.0,2.445205800002441,0.39,-52,85,115_166
115,167,5,gain,ntc,1.0,1.7111440000589937,0.26,9,35,115_167
115,168,5,gain,ntc,1.0,1.145760100102052,0.41,12,30,115_168
115,169,5,gain,ntc,0.0,1.4770243000239134,0.29,26,88,115_169
115,170,5,gain,ntc,1.0,2.498371100053191,0.15,10,70,115_170
115,171,5,loss,ntc,1.0,4.0428534999955446,0.2,-25,31,115_171
115,172,5,loss,ntc,1.0,1.4561600000597537,0.34,-15,22,115_172
115,173,5,loss,ntc,0.0,1.6313784001395106,0.14,-39,45,115_173
115,174,5,gain,ntc,0.0,1.2313053000252694,0.34,23,69,115_174
115,176,5,gain,ntc,0.0,1.9584889998659487,0.14,6,45,115_176
115,177,5,loss,ntc,1.0,1.6604282001499089,0.64,-20,55,115_177
115,178,5,loss,ntc,1.0,2.3476648000068963,0.4,-40,66,115_178
115,179,5,loss,ntc,1.0,1.5202043000608685,0.67,-21,64,115_179
115,180,5,gain,ntc,0.0,1.5982558999676255,0.39,34,86,115_180
115,181,5,gain,ntc,1.0,3.058151099830866,0.39,18,46,115_181
115,182,5,loss,ntc,0.0,2.055424600141123,0.54,-33,71,115_182
115,183,5,loss,ntc,0.0,4.031516300048679,0.12,-75,85,115_183
115,184,5,loss,ntc,0.0,1.8838883000425997,0.34,-50,76,115_184
115,185,5,gain,ntc,1.0,2.3577195999678224,0.18,9,50,115_185
115,186,5,gain,ntc,0.0,3.203159299911931,0.76,54,71,115_186
115,187,5,loss,ntc,1.0,1.7956317998468876,0.59,-27,65,115_187
115,189,5,loss,ntc,0.0,1.954222300089896,0.66,-22,64,115_189
115,191,5,gain,ntc,0.0,2.046691900119185,0.64,35,55,115_191
115,192,5,gain,ntc,0.0,2.1912913999985904,0.58,19,32,115_192
115,193,5,loss,ntc,0.0,1.9679328999482093,0.29,-51,72,115_193
115,194,5,loss,ntc,0.0,2.92583080008626,0.85,-6,40,115_194
115,195,5,gain,ntc,0.0,1.43378600012511,0.4,26,66,115_195
115,197,5,loss,ntc,0.0,1.638254899997264,0.71,-26,89,115_197
115,199,5,loss,ntc,0.0,1.8894670999143277,0.38,-33,53,115_199
115,200,5,loss,ntc,0.0,1.412056300090626,0.65,-13,36,115_200
115,202,6,gain,tc,,,0.76,54,71,115_202
115,203,6,gain,tc,0.0,0.4949094001203775,0.51,42,83,115_203
115,204,6,loss,tc,1.0,0.6875094999559224,0.26,-26,35,115_204
115,205,6,gain,tc,1.0,0.8068146998994052,0.12,10,85,115_205
115,207,6,gain,tc,0.0,0.538701199926436,0.4,26,66,115_207
115,208,6,loss,tc,0.0,0.5866292999126017,0.2,-40,50,115_208
115,209,6,gain,tc,0.0,0.464545999886468,0.38,20,53,115_209
115,210,6,gain,tc,1.0,0.7298508000094444,0.25,22,88,115_210
115,211,6,loss,tc,0.0,0.795201700180769,0.64,-20,55,115_211
115,212,6,gain,tc,0.0,0.7344341999851167,0.14,6,45,115_212
115,213,6,loss,tc,1.0,0.8224164999555796,0.52,-40,83,115_213
115,214,6,loss,tc,0.0,0.6876467000693083,0.43,-22,38,115_214
115,215,6,loss,tc,1.0,0.9043110001366584,0.36,-20,32,115_215
115,216,6,gain,tc,0.0,0.6262082001194358,0.39,34,86,115_216
115,217,6,gain,tc,1.0,0.6775169000029564,0.15,10,70,115_217
115,218,6,loss,tc,0.0,0.8934417997952551,0.48,-46,89,115_218
115,219,6,gain,tc,0.0,0.6980186000000685,0.53,39,74,115_219
115,221,6,loss,tc,0.0,0.900007699849084,0.35,-33,51,115_221
115,222,6,gain,tc,0.0,0.5519226000178605,0.1,7,69,115_222
115,223,6,loss,tc,0.0,0.9084978001192212,0.29,-33,47,115_223
115,224,6,gain,tc,0.0,0.6924417000263929,0.64,35,55,115_224
115,225,6,gain,tc,0.0,0.6184084999840707,0.43,16,38,115_225
115,226,6,gain,tc,1.0,0.9704134999774396,0.51,40,78,115_226
115,227,6,gain,tc,0.0,0.7502719999756664,0.36,12,32,115_227
115,228,6,loss,tc,1.0,0.919614400016144,0.12,-75,85,115_228
115,230,6,gain,tc,0.0,0.6341303999070078,0.46,37,81,115_230
115,232,6,gain,tc,0.0,0.4513757000677287,0.71,63,89,115_232
115,233,6,loss,tc,0.0,0.6593615999445319,0.5,-43,86,115_233
115,234,6,gain,tc,0.0,0.4959061997942626,0.27,14,52,115_234
115,235,6,loss,tc,1.0,0.6625691000372171,0.2,-17,21,115_235
115,236,6,loss,tc,1.0,0.8525168998166919,0.1,-50,56,115_236
115,237,6,loss,tc,0.0,0.8431412999052554,0.66,-22,64,115_237
115,238,6,loss,tc,0.0,0.4831014999654144,0.24,-40,52,115_238
115,239,6,loss,tc,1.0,0.8224132000468671,0.34,-15,22,115_239
115,240,6,gain,tc,0.0,0.5003457998391241,0.52,41,78,115_240
115,242,7,loss,ntc,0.0,1.5437901997938752,0.78,-16,71,115_242
115,243,7,gain,ntc,1.0,3.367639600066468,0.1,7,69,115_243
115,244,7,loss,ntc,0.0,1.232283900026232,0.48,-33,64,115_244
115,245,7,gain,ntc,0.0,2.1229244000278413,0.39,27,70,115_245
115,246,7,gain,ntc,1.0,2.010164599865675,0.46,21,45,115_246
115,248,7,gain,ntc,1.0,3.556065100012347,0.12,10,85,115_248
115,249,7,loss,ntc,1.0,1.690613399958238,0.46,-44,81,115_249
115,250,7,gain,ntc,0.0,1.603178899968043,0.48,43,89,115_250
115,251,7,gain,ntc,0.0,1.5917837000451982,0.51,40,78,115_251
115,252,7,loss,ntc,1.0,1.5210473998449745,0.52,-37,78,115_252
115,253,7,loss,ntc,1.0,3.05964450002648,0.41,-23,39,115_253
115,254,7,gain,ntc,0.0,1.898213800042868,0.35,18,51,115_254
115,255,7,loss,ntc,1.0,2.2861520000733435,0.36,-20,32,115_255
115,256,7,gain,ntc,0.0,2.683420700021088,0.2,10,50,115_256
115,257,7,loss,ntc,0.0,2.0399700000416487,0.25,-59,79,115_257
115,258,7,loss,ntc,0.0,2.1653567000757903,0.3,-18,26,115_258
115,259,7,loss,ntc,1.0,0.7552475000265986,0.58,-13,32,115_259
115,260,7,loss,ntc,0.0,1.1744601000100374,0.35,-33,51,115_260
115,262,7,gain,ntc,0.0,1.6356989000923932,0.28,22,78,115_262
115,263,7,loss,ntc,0.0,1.6349494999740273,0.18,-41,50,115_263
115,264,7,gain,ntc,1.0,1.5568738000001758,0.36,12,32,115_264
115,265,7,gain,ntc,0.0,1.3347671998199075,0.38,20,53,115_265
115,266,7,gain,ntc,1.0,2.004759200150147,0.34,7,22,115_266
115,267,7,gain,ntc,0.0,1.8446559000294656,0.46,37,81,115_267
115,268,7,gain,ntc,0.0,1.2559646998997778,0.35,29,82,115_268
115,269,7,gain,ntc,0.0,1.4451456000097096,0.71,63,89,115_269
115,270,7,gain,ntc,0.0,1.833836000179872,0.38,32,84,115_270
115,273,7,gain,ntc,1.0,1.2862530001439154,0.43,16,38,115_273
115,274,7,loss,ntc,0.0,1.827528900001198,0.2,-35,44,115_274
115,275,7,loss,ntc,0.0,1.6787453999277204,0.2,-17,21,115_275
115,276,7,loss,ntc,1.0,1.9680122998543084,0.51,-38,78,115_276
115,277,7,gain,ntc,1.0,2.945322000188753,0.21,14,69,115_277
115,278,7,loss,ntc,1.0,1.769204800017178,0.2,-40,50,115_278
115,279,7,loss,ntc,1.0,1.273117600008845,0.65,-12,33,115_279
115,280,7,loss,ntc,1.0,3.002417500130832,0.1,-50,56,115_280
115,281,8,loss,tc,,,0.41,-23,39,115_281
115,282,8,loss,tc,0.0,0.571913099847734,0.39,-43,70,115_282
115,284,8,loss,tc,0.0,0.5337920999154449,0.45,-31,57,115_284
115,285,8,loss,tc,0.0,0.5437524998560548,0.45,-19,35,115_285
115,286,8,gain,tc,0.0,0.4616511000785976,0.17,4,22,115_286
115,287,8,gain,tc,0.0,0.5270044999197125,0.39,33,85,115_287
115,288,8,gain,tc,1.0,0.845633499789983,0.57,24,42,115_288
115,289,8,gain,tc,1.0,0.6521260000299662,0.52,43,83,115_289
115,290,8,gain,tc,1.0,0.8655009001959115,0.39,18,46,115_290
115,291,8,gain,tc,0.0,0.492131499806419,0.46,21,45,115_291
115,292,8,loss,tc,1.0,0.4368864002171904,0.65,-13,36,115_292
115,295,8,gain,tc,0.0,0.8479174999520183,0.21,14,69,115_295
115,296,8,gain,tc,1.0,0.9765377999283372,0.28,22,78,115_296
115,297,8,gain,tc,,,0.24,12,52,115_297
115,298,8,gain,tc,0.0,0.4237551998812705,0.34,26,76,115_298
115,299,8,gain,tc,0.0,0.5097141000442207,0.63,34,54,115_299
115,302,8,gain,tc,0.0,0.4981938998680562,0.67,43,64,115_302
115,303,8,loss,tc,1.0,0.7001550998538733,0.2,-35,44,115_303
115,305,8,loss,tc,0.0,0.5360186998732388,0.35,-28,43,115_305
115,306,8,loss,tc,1.0,0.5760210999287665,0.78,-16,71,115_306
115,307,8,loss,tc,0.0,0.7152789998799562,0.48,-33,64,115_307
115,308,8,loss,tc,1.0,0.6934875999577343,0.46,-44,81,115_308
115,309,8,gain,tc,0.0,0.4812024999409914,0.45,16,35,115_309
115,310,8,loss,tc,1.0,0.8078532998915762,0.15,-60,70,115_310
115,311,8,gain,tc,0.0,0.4597553999628871,0.2,10,50,115_311
115,312,8,loss,tc,1.0,0.5837361998856068,0.3,-18,26,115_312
115,313,8,loss,tc,1.0,0.697664299979806,0.39,-28,46,115_313
115,315,8,loss,tc,1.0,0.7216238998807967,0.53,-35,74,115_315
115,316,8,gain,tc,0.0,0.6869309998583049,0.5,43,86,115_316
115,317,8,loss,tc,0.0,0.6281781999859959,0.28,-56,78,115_317
115,318,8,gain,tc,0.0,0.6233904999680817,0.66,42,64,115_318
115,319,8,loss,tc,0.0,0.7133615999482572,0.76,-17,71,115_319
115,320,8,gain,tc,0.0,0.6833391999825835,0.26,9,35,115_320
116,1,1,gain,ntc,1.0,3.711799400160089,0.28,22,78,116_1
116,3,1,gain,ntc,0.0,1.740958800073713,0.1,8,78,116_3
116,4,1,gain,ntc,0.0,3.410920799942687,0.46,21,45,116_4
116,5,1,gain,ntc,0.0,2.304831099929288,0.3,8,26,116_5
116,6,1,gain,ntc,1.0,1.6367445001378655,0.58,19,32,116_6
116,7,1,loss,ntc,1.0,4.640677300048992,0.45,-31,57,116_7
116,8,1,gain,ntc,0.0,2.823940400034189,0.2,9,44,116_8
116,9,1,loss,ntc,1.0,2.263855899916962,0.39,-28,46,116_9
116,10,1,loss,ntc,1.0,4.386467600008473,0.26,-26,35,116_10
116,11,1,loss,ntc,1.0,2.2277474999427795,0.64,-20,55,116_11
116,12,1,gain,ntc,0.0,2.260362699860707,0.35,29,82,116_12
116,13,1,gain,ntc,1.0,3.886243799934164,0.53,39,74,116_13
116,14,1,loss,ntc,0.0,1.584812199929729,0.41,-18,30,116_14
116,15,1,loss,ntc,0.0,3.646139600081369,0.5,-43,86,116_15
116,16,1,gain,ntc,1.0,1.3586812999565154,0.51,40,78,116_16
116,17,1,loss,ntc,1.0,6.586626600008458,0.35,-33,51,116_17
116,18,1,loss,ntc,1.0,2.355893600033596,0.71,-26,89,116_18
116,19,1,gain,ntc,0.0,2.379085300024599,0.4,26,66,116_19
116,20,1,gain,ntc,0.0,5.161765600088984,0.48,43,89,116_20
116,21,1,loss,ntc,0.0,1.8243208001367748,0.14,-39,45,116_21
116,22,1,gain,ntc,1.0,2.661593599943444,0.48,31,64,116_22
116,23,1,loss,ntc,1.0,5.2335035998839885,0.2,-17,21,116_23
116,24,1,loss,ntc,0.0,1.8027937000151724,0.3,-18,26,116_24
116,25,1,gain,ntc,1.0,2.257320400094613,0.57,24,42,116_25
116,26,1,gain,ntc,0.0,2.7812310999725014,0.39,34,86,116_26
116,27,1,loss,ntc,1.0,4.07120420015417,0.17,-18,22,116_27
116,29,1,loss,ntc,1.0,1.2810265000443906,0.65,-13,36,116_29
116,30,1,gain,ntc,0.0,1.9276562000159172,0.25,22,88,116_30
116,31,1,loss,ntc,0.0,2.5889461000915617,0.34,-15,22,116_31
116,32,1,loss,ntc,1.0,1.3468959999736398,0.57,-18,42,116_32
116,33,1,gain,ntc,1.0,2.58277179999277,0.54,18,33,116_33
116,34,1,gain,ntc,1.0,1.6514109000563622,0.67,43,64,116_34
116,35,1,loss,ntc,0.0,2.077381200157106,0.41,-23,39,116_35
116,36,1,loss,ntc,0.0,1.3492687998805195,0.2,-25,31,116_36
116,37,1,loss,ntc,1.0,2.3825127000454813,0.39,-52,86,116_37
116,38,1,loss,ntc,1.0,1.2871541997883469,0.76,-17,71,116_38
116,39,1,gain,ntc,0.0,1.7910234997980297,0.51,42,83,116_39
116,40,1,gain,ntc,1.0,1.498992099892348,0.38,20,53,116_40
116,41,2,loss,tc,0.0,0.6823570001870394,0.41,-18,30,116_41
116,42,2,gain,tc,0.0,0.8429485999513417,0.25,20,79,116_42
116,43,2,loss,tc,1.0,0.7449097000062466,0.65,-12,33,116_43
116,44,2,loss,tc,1.0,0.7361824000254273,0.17,-18,22,116_44
116,45,2,loss,tc,1.0,0.8381661998573691,0.39,-52,85,116_45
116,46,2,gain,tc,0.0,0.5907922999467701,0.48,43,89,116_46
116,47,2,gain,tc,1.0,0.6647795999888331,0.39,9,22,116_47
116,48,2,gain,tc,0.0,0.7006548000499606,0.54,38,71,116_48
116,50,2,loss,tc,,,0.52,-37,78,116_50
116,51,2,loss,tc,0.0,0.5551501999143511,0.78,-16,71,116_51
116,52,2,gain,tc,0.0,0.7998198999557644,0.67,43,64,116_52
116,53,2,loss,tc,,,0.5,-43,86,116_53
116,56,2,gain,tc,0.0,0.6655769001226872,0.1,7,69,116_56
116,57,2,gain,tc,0.0,0.6861767000518739,0.25,22,88,116_57
116,58,2,loss,tc,1.0,0.533438399899751,0.39,-28,46,116_58
116,60,2,loss,tc,0.0,0.6567172999493778,0.46,-24,45,116_60
116,61,2,loss,tc,1.0,0.6613721998874098,0.54,-33,71,116_61
116,63,2,gain,tc,0.0,0.4978650999255478,0.41,12,30,116_63
116,64,2,gain,tc,0.0,0.5584525999147445,0.29,21,72,116_64
116,65,2,gain,tc,1.0,0.6777436998672783,0.21,14,69,116_65
116,66,2,gain,tc,1.0,0.668426999822259,0.17,4,22,116_66
116,67,2,loss,tc,1.0,0.7437130000907928,0.45,-31,57,116_67
116,68,2,gain,tc,0.0,0.5603573000989854,0.41,16,39,116_68
116,69,2,loss,tc,0.0,0.7889321001712233,0.46,-44,81,116_69
116,70,2,loss,tc,1.0,0.4688740000128746,0.65,-13,36,116_70
116,71,2,gain,tc,1.0,0.5928884998429567,0.34,7,22,116_71
116,72,2,loss,tc,0.0,0.6361097001936287,0.38,-52,84,116_72
116,73,2,gain,tc,0.0,0.6554429000243545,0.39,18,46,116_73
116,74,2,gain,tc,1.0,0.7107233998831362,0.28,6,21,116_74
116,75,2,gain,tc,0.0,0.7940054000355303,0.28,22,78,116_75
116,76,2,gain,tc,0.0,0.6713040999602526,0.51,40,78,116_76
116,77,2,loss,tc,0.0,0.8772779998835176,0.48,-46,89,116_77
116,78,2,loss,tc,0.0,0.8451972999610007,0.2,-40,50,116_78
116,79,2,gain,tc,1.0,0.6104494000319391,0.52,41,78,116_79
116,80,2,loss,tc,1.0,0.8144492001738399,0.1,-62,69,116_80
116,81,3,loss,ntc,1.0,5.649836099939421,0.58,-13,32,116_81
116,82,3,gain,ntc,1.0,3.610421200050041,0.2,10,50,116_82
116,83,3,loss,ntc,0.0,2.9569750998634845,0.46,-44,81,116_83
116,84,3,gain,ntc,1.0,1.6989322998560965,0.65,21,33,116_84
116,85,3,loss,ntc,0.0,1.4568409000057727,0.21,-55,69,116_85
116,86,3,loss,ntc,1.0,0.9774843999184668,0.48,-46,89,116_86
116,87,3,gain,ntc,0.0,1.1887574999127537,0.63,34,54,116_87
116,88,3,gain,ntc,1.0,1.5045769000425937,0.41,16,39,116_88
116,89,3,loss,ntc,1.0,4.197318800026551,0.39,-43,70,116_89
116,90,3,loss,ntc,0.0,2.7478557000868022,0.51,-23,47,116_90
116,91,3,loss,ntc,0.0,3.208459499990568,0.28,-56,78,116_91
116,92,3,loss,ntc,1.0,1.4270787998102603,0.24,-30,40,116_92
116,93,3,loss,ntc,1.0,2.6742696999572217,0.46,-24,45,116_93
116,94,3,gain,ntc,1.0,1.2155732999090103,0.24,10,40,116_94
116,95,3,gain,ntc,0.0,1.298810200067237,0.52,41,78,116_95
116,96,3,loss,ntc,1.0,4.717428399948403,0.52,-40,83,116_96
116,97,3,gain,ntc,1.0,3.675367499934509,0.28,22,78,116_97
116,98,3,loss,ntc,1.0,2.0539712999016047,0.28,-56,78,116_98
116,99,3,loss,ntc,0.0,2.832445799838752,0.51,-38,78,116_99
116,100,3,loss,ntc,1.0,1.6404603999108076,0.36,-20,32,116_100
116,101,3,gain,ntc,1.0,2.207765799947083,0.12,10,85,116_101
116,102,3,gain,ntc,0.0,0.7303549000062048,0.28,6,21,116_102
116,103,3,gain,ntc,1.0,1.5635935999453068,0.39,9,22,116_103
116,105,3,gain,ntc,1.0,1.7580979000777006,0.35,15,43,116_105
116,106,3,loss,ntc,0.0,1.4520975998602808,0.29,-33,47,116_106
116,107,3,loss,ntc,0.0,2.133964999811724,0.25,-59,79,116_107
116,108,3,gain,ntc,0.0,1.651249600108713,0.46,37,81,116_108
116,109,3,loss,ntc,1.0,1.7318611999507991,0.35,-53,82,116_109
116,111,3,loss,ntc,1.0,1.822312399977818,0.34,-50,76,116_111
116,113,3,gain,ntc,0.0,1.0395663999952376,0.65,23,36,116_113
116,114,3,gain,ntc,1.0,3.756882300134748,0.29,21,72,116_114
116,115,3,loss,ntc,0.0,1.172711200080812,0.85,-6,40,116_115
116,117,3,gain,ntc,1.0,1.6999307998921722,0.45,26,57,116_117
116,118,3,loss,ntc,1.0,1.666575999930501,0.54,-15,33,116_118
116,119,3,gain,ntc,0.0,2.6498346000444144,0.14,6,45,116_119
116,122,4,loss,tc,,,0.51,-41,83,116_122
116,123,4,gain,tc,0.0,0.4810548999812454,0.66,42,64,116_123
116,124,4,loss,tc,0.0,0.5829165000468493,0.39,-43,70,116_124
116,125,4,loss,tc,0.0,0.7309003002010286,0.39,-52,86,116_125
116,126,4,gain,tc,1.0,0.698161399923265,0.71,63,89,116_126
116,127,4,gain,tc,0.0,0.7475002999417484,0.51,42,83,116_127
116,128,4,loss,tc,1.0,0.6187403001822531,0.76,-17,71,116_128
116,129,4,loss,tc,,,0.48,-33,64,116_129
116,130,4,gain,tc,0.0,0.5159429002087563,0.28,22,78,116_130
116,131,4,loss,tc,0.0,0.6419804999604821,0.29,-62,88,116_131
116,132,4,loss,tc,1.0,0.5184810999780893,0.28,-15,21,116_132
116,133,4,loss,tc,1.0,0.5924819000065327,0.64,-20,55,116_133
116,134,4,loss,tc,0.0,0.6524902998935431,0.2,-25,31,116_134
116,135,4,loss,tc,0.0,0.8364085000939667,0.34,-50,76,116_135
116,137,4,loss,tc,0.0,0.8376656000036746,0.14,-39,45,116_137
116,138,4,gain,tc,1.0,0.9122917000204324,0.35,29,82,116_138
116,139,4,loss,tc,,,0.34,-46,69,116_139
116,141,4,gain,tc,1.0,0.5460632999893278,0.36,12,32,116_141
116,142,4,gain,tc,0.0,0.4814546999987215,0.65,21,33,116_142
116,143,4,gain,tc,0.0,0.5633834998589009,0.1,8,78,116_143
116,144,4,gain,tc,1.0,0.7359499000012875,0.46,21,45,116_144
116,145,4,loss,tc,1.0,0.7053032000549138,0.51,-23,47,116_145
116,146,4,gain,tc,0.0,0.6292566999327391,0.46,37,81,116_146
116,147,4,gain,tc,0.0,0.6391550998669118,0.59,38,65,116_147
116,148,4,loss,tc,,,0.15,-60,70,116_148
116,149,4,gain,tc,0.0,0.6423350998666137,0.76,54,71,116_149
116,150,4,gain,tc,1.0,0.7683174000121653,0.1,6,56,116_150
116,151,4,loss,tc,1.0,0.6322861998341978,0.39,-13,22,116_151
116,152,4,loss,tc,1.0,0.7709006001241505,0.25,-59,79,116_152
116,153,4,gain,tc,0.0,0.5215186001732945,0.45,16,35,116_153
116,154,4,loss,tc,0.0,0.8648943000007421,0.4,-40,66,116_154
116,155,4,gain,tc,0.0,0.7193938998971134,0.29,26,88,116_155
116,156,4,gain,tc,0.0,0.7820427000988275,0.35,18,51,116_156
116,157,4,gain,tc,1.0,0.8839678999502212,0.45,26,57,116_157
116,158,4,gain,tc,1.0,0.9892255999147892,0.29,14,47,116_158
116,159,4,loss,tc,1.0,0.73453289992176,0.24,-40,52,116_159
116,160,4,loss,tc,0.0,0.6444500999059528,0.12,-75,85,116_160
116,161,5,loss,ntc,0.0,4.257641000207514,0.45,-19,35,116_161
116,163,5,gain,ntc,1.0,1.5389040000736711,0.17,4,22,116_163
116,164,5,loss,ntc,1.0,3.22149520018138,0.51,-41,83,116_164
116,165,5,loss,ntc,0.0,1.5847589999902991,0.34,-46,69,116_165
116,166,5,gain,ntc,1.0,2.618698799982667,0.38,32,84,116_166
116,167,5,gain,ntc,1.0,3.033920699963346,0.39,27,70,116_167
116,168,5,loss,ntc,0.0,1.364492299966514,0.39,-52,85,116_168
116,169,5,gain,ntc,1.0,1.8877294999547305,0.2,6,31,116_169
116,171,5,loss,ntc,0.0,1.3082608000840992,0.43,-22,38,116_171
116,172,5,loss,ntc,1.0,1.5448966999538245,0.29,-51,72,116_172
116,173,5,loss,ntc,0.0,4.089427199913189,0.54,-33,71,116_173
116,174,5,loss,ntc,1.0,1.5686999999452382,0.28,-15,21,116_174
116,175,5,gain,ntc,0.0,2.761299500009045,0.35,18,51,116_175
116,176,5,gain,ntc,1.0,1.1559225001838058,0.18,9,50,116_176
116,177,5,loss,ntc,1.0,2.7185471998527646,0.18,-41,50,116_177
116,178,5,gain,ntc,0.0,6.437074800021946,0.25,20,79,116_178
116,180,5,gain,ntc,1.0,2.311570900026709,0.51,24,47,116_180
116,181,5,gain,ntc,0.0,2.784240399952978,0.64,35,55,116_181
116,182,5,loss,ntc,1.0,1.703476599883288,0.59,-27,65,116_182
116,183,5,gain,ntc,1.0,1.366129599977285,0.2,4,21,116_183
116,185,5,loss,ntc,1.0,3.160580199910328,0.35,-28,43,116_185
116,186,5,loss,ntc,0.0,0.841125100152567,0.53,-35,74,116_186
116,188,5,loss,ntc,1.0,4.404339500004426,0.2,-35,44,116_188
116,189,5,loss,ntc,0.0,1.4470047000795605,0.38,-33,53,116_189
116,190,5,gain,ntc,1.0,1.5762354999314994,0.85,34,40,116_190
116,191,5,gain,ntc,0.0,1.1101432000286875,0.54,38,71,116_191
116,192,5,gain,ntc,1.0,3.858078500023112,0.52,43,83,116_192
116,194,5,gain,ntc,1.0,4.753971900092438,0.34,26,76,116_194
116,195,5,gain,ntc,0.0,2.942536599934101,0.59,38,65,116_195
116,196,5,loss,ntc,1.0,1.5410837000235915,0.25,-66,88,116_196
116,197,5,gain,ntc,1.0,1.8457575000356885,0.34,23,69,116_197
116,198,5,gain,ntc,0.0,0.9009700000751764,0.29,26,88,116_198
116,200,5,loss,ntc,1.0,1.805557700106874,0.39,-13,22,116_200
116,202,6,gain,tc,0.0,0.7055108000058681,0.78,55,71,116_202
116,203,6,gain,tc,1.0,0.8794456999748945,0.2,6,31,116_203
116,204,6,gain,tc,1.0,0.762075699865818,0.24,12,52,116_204
116,205,6,loss,tc,0.0,0.8055930000264198,0.35,-28,43,116_205
116,206,6,gain,tc,,,0.15,10,70,116_206
116,207,6,loss,tc,1.0,0.7032417000737041,0.29,-51,72,116_207
116,208,6,gain,tc,1.0,0.7332215998321772,0.18,9,50,116_208
116,209,6,loss,tc,0.0,0.6478027000557631,0.53,-35,74,116_209
116,210,6,loss,tc,0.0,0.6857791999354959,0.26,-26,35,116_210
116,211,6,gain,tc,1.0,0.7430489999242127,0.14,6,45,116_211
116,212,6,gain,tc,0.0,0.7957089999690652,0.51,24,47,116_212
116,213,6,gain,tc,0.0,0.8976396999787539,0.38,32,84,116_213
116,214,6,gain,tc,1.0,0.9369073000270872,0.39,27,70,116_214
116,215,6,gain,tc,0.0,0.6868833999615163,0.5,43,86,116_215
116,216,6,loss,tc,0.0,0.8701080998871475,0.43,-22,38,116_216
116,217,6,gain,tc,1.0,0.8087088000029325,0.34,23,69,116_217
116,218,6,gain,tc,0.0,0.9993673998396844,0.53,39,74,116_218
116,219,6,loss,tc,0.0,0.9613281001802534,0.41,-23,39,116_219
116,220,6,loss,tc,,,0.18,-41,50,116_220
116,221,6,gain,tc,1.0,0.647205000044778,0.2,4,21,116_221
116,222,6,loss,tc,1.0,0.6999290999956429,0.67,-21,64,116_222
116,223,6,loss,tc,1.0,0.741771699860692,0.3,-18,26,116_223
116,225,6,loss,tc,0.0,0.9036306999623775,0.34,-15,22,116_225
116,226,6,loss,tc,0.0,0.766948000062257,0.1,-50,56,116_226
116,227,6,loss,tc,1.0,0.8721962999552488,0.35,-33,51,116_227
116,228,6,gain,tc,0.0,0.5968722000252455,0.52,43,83,116_228
116,229,6,loss,tc,0.0,0.9321030999999492,0.2,-35,44,116_229
116,230,6,loss,tc,,,0.59,-27,65,116_230
116,231,6,gain,tc,1.0,0.7333788999821991,0.26,9,35,116_231
116,232,6,gain,tc,0.0,0.6253174000885338,0.63,34,54,116_232
116,233,6,loss,tc,1.0,0.8352943998761475,0.54,-15,33,116_233
116,234,6,gain,tc,1.0,0.9591901998501272,0.57,24,42,116_234
116,235,6,loss,tc,1.0,0.7151591000147164,0.27,-38,52,116_235
116,236,6,loss,tc,,,0.29,-33,47,116_236
116,237,6,gain,tc,0.0,0.6157527999021113,0.64,35,55,116_237
116,238,6,loss,tc,1.0,0.5890118000097573,0.85,-6,40,116_238
116,239,6,loss,tc,0.0,0.8789513001684099,0.35,-53,82,116_239
116,240,6,gain,tc,1.0,0.7288994998671114,0.85,34,40,116_240
116,241,7,gain,ntc,1.0,4.295416499953717,0.1,6,56,116_241
116,242,7,gain,ntc,0.0,4.016714199911803,0.24,12,52,116_242
116,243,7,gain,ntc,1.0,2.982641999842599,0.26,9,35,116_243
116,244,7,loss,ntc,0.0,1.6365230998490006,0.12,-75,85,116_244
116,245,7,loss,ntc,1.0,2.978504400001839,0.24,-40,52,116_245
116,246,7,loss,ntc,0.0,2.827022299868986,0.78,-16,71,116_246
116,247,7,loss,ntc,1.0,2.0416434998624027,0.65,-12,33,116_247
116,248,7,loss,ntc,0.0,6.221597900148481,0.38,-52,84,116_248
116,249,7,loss,ntc,1.0,1.9848533000331368,0.15,-60,70,116_249
116,250,7,gain,ntc,1.0,1.633379900129512,0.36,12,32,116_250
116,251,7,loss,ntc,1.0,2.6187163998838514,0.63,-20,54,116_251
116,252,7,loss,ntc,0.0,2.107919600093737,0.2,-40,50,116_252
116,253,7,loss,ntc,0.0,3.3805209998972714,0.52,-37,78,116_253
116,255,7,loss,ntc,1.0,4.879789700033143,0.4,-40,66,116_255
116,256,7,gain,ntc,0.0,2.41315699997358,0.66,42,64,116_256
116,257,7,gain,ntc,1.0,2.1496059000492096,0.71,63,89,116_257
116,258,7,loss,ntc,0.0,2.730876399902627,0.29,-62,88,116_258
116,259,7,gain,ntc,1.0,1.9847883998882023,0.34,7,22,116_259
116,260,7,loss,ntc,1.0,4.370738999918103,0.1,-50,56,116_260
116,261,7,loss,ntc,0.0,1.1659990998450669,0.1,-70,78,116_261
116,262,7,gain,ntc,0.0,2.012511800043285,0.29,14,47,116_262
116,263,7,loss,ntc,1.0,1.704440699890256,0.67,-21,64,116_263
116,264,7,gain,ntc,0.0,4.3176690000109375,0.1,7,69,116_264
116,266,7,gain,ntc,0.0,4.364237899892032,0.39,18,46,116_266
116,267,7,loss,ntc,0.0,2.7321880999952555,0.48,-33,64,116_267
116,268,7,gain,ntc,1.0,1.762062600115314,0.39,33,85,116_268
116,269,7,gain,ntc,0.0,2.437990500126034,0.45,16,35,116_269
116,270,7,gain,ntc,1.0,2.068538499996066,0.15,10,70,116_270
116,271,7,gain,ntc,0.0,2.803859599865973,0.78,55,71,116_271
116,272,7,gain,ntc,1.0,2.9144076998345554,0.27,14,52,116_272
116,273,7,gain,ntc,1.0,5.784410000080243,0.76,54,71,116_273
116,274,7,loss,ntc,0.0,2.571601200150326,0.1,-62,69,116_274
116,275,7,gain,ntc,1.0,3.1468827000353485,0.21,14,69,116_275
116,276,7,loss,ntc,0.0,2.247490999987349,0.66,-22,64,116_276
116,277,7,gain,ntc,0.0,2.128094899933785,0.5,43,86,116_277
116,278,7,gain,ntc,1.0,1.229316400131211,0.41,12,30,116_278
116,279,7,gain,ntc,1.0,1.5899475999176502,0.43,16,38,116_279
116,280,7,loss,ntc,0.0,1.5891889999620616,0.27,-38,52,116_280
116,281,8,gain,tc,0.0,0.5263207999523729,0.38,20,53,116_281
116,282,8,loss,tc,1.0,0.5549333000089973,0.63,-20,54,116_282
116,283,8,loss,tc,0.0,0.6229114001616836,0.36,-20,32,116_283
116,284,8,loss,tc,1.0,0.5462408000603318,0.45,-19,35,116_284
116,285,8,gain,tc,1.0,0.7888068999163806,0.24,10,40,116_285
116,287,8,loss,tc,1.0,0.890736399916932,0.24,-30,40,116_287
116,288,8,gain,tc,0.0,0.8340503999497741,0.39,33,85,116_288
116,289,8,gain,tc,1.0,0.9793451998848468,0.35,15,43,116_289
116,291,8,gain,tc,0.0,0.956512900069356,0.34,26,76,116_291
116,292,8,gain,tc,1.0,0.7838316999841481,0.65,23,36,116_292
116,293,8,loss,tc,0.0,0.758416400058195,0.28,-56,78,116_293
116,294,8,loss,tc,0.0,0.7663419998716563,0.28,-56,78,116_294
116,295,8,gain,tc,1.0,0.9150404001120478,0.43,16,38,116_295
116,296,8,gain,tc,1.0,0.8089757000561804,0.3,8,26,116_296
116,297,8,gain,tc,0.0,0.8222383998800069,0.2,10,50,116_297
116,299,8,loss,tc,1.0,0.7094007001724094,0.57,-18,42,116_299
116,300,8,loss,tc,0.0,0.7694206999149173,0.38,-33,53,116_300
116,302,8,loss,tc,1.0,0.6466707000508904,0.58,-13,32,116_302
116,303,8,gain,tc,0.0,0.6392605998553336,0.39,34,86,116_303
116,304,8,loss,tc,0.0,0.8858925998210907,0.71,-26,89,116_304
116,305,8,loss,tc,1.0,0.6871719001792371,0.66,-22,64,116_305
116,306,8,gain,tc,0.0,0.8938126000575721,0.48,31,64,116_306
116,307,8,gain,tc,1.0,0.7450549998320639,0.54,18,33,116_307
116,308,8,loss,tc,0.0,0.7496267999522388,0.21,-55,69,116_308
116,310,8,gain,tc,1.0,0.922247399808839,0.12,10,85,116_310
116,311,8,gain,tc,1.0,0.9688071999698876,0.58,19,32,116_311
116,312,8,loss,tc,0.0,0.9141267000231892,0.2,-17,21,116_312
116,314,8,gain,tc,1.0,0.7653634001035243,0.2,9,44,116_314
116,315,8,gain,tc,0.0,0.8326097000390291,0.4,26,66,116_315
116,316,8,loss,tc,1.0,0.960571700008586,0.25,-66,88,116_316
116,317,8,loss,tc,1.0,0.8945824999827892,0.52,-40,83,116_317
116,318,8,loss,tc,0.0,0.8504062001593411,0.51,-38,78,116_318
116,319,8,loss,tc,0.0,0.7863976999651641,0.1,-70,78,116_319
116,320,8,gain,tc,0.0,0.8082777999807149,0.27,14,52,116_320
119,1,1,loss,ntc,1.0,1.0697741000039969,0.48,-33,64,119_1
119,2,1,loss,ntc,0.0,4.306427600007737,0.2,-35,44,119_2
119,3,1,gain,ntc,1.0,1.132319299998926,0.54,18,33,119_3
119,4,1,gain,ntc,0.0,1.484256199997617,0.12,10,85,119_4
119,6,1,loss,ntc,0.0,1.342863199999556,0.35,-53,82,119_6
119,7,1,gain,ntc,1.0,1.950749600015115,0.85,34,40,119_7
119,8,1,loss,ntc,1.0,0.6480286000005435,0.46,-44,81,119_8
119,9,1,loss,ntc,0.0,2.114693699986674,0.34,-50,76,119_9
119,10,1,gain,ntc,0.0,0.9812151000078302,0.18,9,50,119_10
119,11,1,gain,ntc,1.0,0.9824485999997704,0.71,63,89,119_11
119,12,1,loss,ntc,1.0,0.6844067000201903,0.63,-20,54,119_12
119,13,1,gain,ntc,1.0,0.9137209999898914,0.78,55,71,119_13
119,14,1,gain,ntc,0.0,1.0650045000074897,0.2,6,31,119_14
119,15,1,gain,ntc,0.0,1.5835543000139296,0.1,8,78,119_15
119,16,1,gain,ntc,1.0,0.748850100004347,0.67,43,64,119_16
119,17,1,loss,ntc,0.0,1.442802000005031,0.28,-56,78,119_17
119,18,1,gain,ntc,1.0,0.7586695999780204,0.34,23,69,119_18
119,19,1,loss,ntc,1.0,0.6006594000209589,0.41,-23,39,119_19
119,20,1,loss,ntc,1.0,1.095289999997476,0.38,-33,53,119_20
119,21,1,gain,ntc,1.0,1.279805199999828,0.34,7,22,119_21
119,22,1,loss,ntc,1.0,0.9297203999885824,0.36,-20,32,119_22
119,23,1,loss,ntc,1.0,1.0836713000026066,0.58,-13,32,119_23
119,25,1,loss,ntc,0.0,2.7075929999991786,0.2,-17,21,119_25
119,26,1,loss,ntc,0.0,0.8455057999817654,0.1,-50,56,119_26
119,27,1,loss,ntc,1.0,1.3841541000001598,0.51,-41,83,119_27
119,28,1,gain,ntc,1.0,0.7527089999930467,0.54,38,71,119_28
119,29,1,loss,ntc,0.0,1.1953565999865532,0.28,-15,21,119_29
119,31,1,gain,ntc,1.0,0.8272338999959175,0.76,54,71,119_31
119,33,1,gain,ntc,1.0,1.5024104000185616,0.65,21,33,119_33
119,34,1,gain,ntc,1.0,4.095009600016056,0.51,24,47,119_34
119,35,1,gain,ntc,1.0,3.2882909000036307,0.45,16,35,119_35
119,36,1,loss,ntc,0.0,1.7208311000140384,0.26,-26,35,119_36
119,37,1,loss,ntc,1.0,1.2101022000133526,0.67,-21,64,119_37
119,38,1,gain,ntc,1.0,2.8527256999805104,0.35,18,51,119_38
119,39,1,gain,ntc,1.0,1.5806099000037648,0.57,24,42,119_39
119,40,1,loss,ntc,1.0,1.753940099995816,0.41,-18,30,119_40
119,41,2,gain,tc,0.0,0.6762541999923997,0.29,21,72,119_41
119,42,2,loss,tc,0.0,0.7621269999945071,0.28,-56,78,119_42
119,43,2,loss,tc,0.0,0.5407297999772709,0.18,-41,50,119_43
119,44,2,loss,tc,0.0,0.7180803999945056,0.36,-20,32,119_44
119,45,2,loss,tc,1.0,0.6226325000170618,0.54,-15,33,119_45
119,46,2,loss,tc,1.0,0.3699183000135235,0.45,-19,35,119_46
119,47,2,gain,tc,1.0,0.4918703000003006,0.64,35,55,119_47
119,48,2,gain,tc,0.0,0.6785487000015564,0.28,6,21,119_48
119,49,2,gain,tc,,,0.1,8,78,119_49
119,50,2,gain,tc,1.0,0.5217311000160407,0.41,12,30,119_50
119,51,2,gain,tc,0.0,0.5150047999923117,0.24,10,40,119_51
119,53,2,loss,tc,1.0,0.3595865000097547,0.43,-22,38,119_53
119,54,2,loss,tc,1.0,0.3488796000019647,0.52,-40,83,119_54
119,55,2,gain,tc,1.0,0.4141778000048361,0.51,42,83,119_55
119,56,2,loss,tc,0.0,0.5520964999741409,0.15,-60,70,119_56
119,57,2,loss,tc,0.0,0.4534071999951266,0.24,-30,40,119_57
119,58,2,gain,tc,1.0,0.6126929000020027,0.52,41,78,119_58
119,59,2,gain,tc,0.0,0.6386299000005238,0.2,9,44,119_59
119,60,2,gain,tc,0.0,0.4565919999731704,0.34,23,69,119_60
119,61,2,gain,tc,0.0,0.4378025000041816,0.1,6,56,119_61
119,62,2,gain,tc,0.0,0.5111609000014141,0.26,9,35,119_62
119,63,2,gain,tc,1.0,0.7144202000054065,0.34,7,22,119_63
119,64,2,gain,tc,0.0,0.7523388999979943,0.25,22,88,119_64
119,65,2,loss,tc,1.0,0.5610134000016842,0.4,-40,66,119_65
119,66,2,gain,tc,0.0,0.6189848000067286,0.3,8,26,119_66
119,67,2,gain,tc,0.0,0.4602261999971233,0.54,18,33,119_67
119,68,2,loss,tc,0.0,0.5528791999968234,0.21,-55,69,119_68
119,69,2,loss,tc,1.0,0.4434627000009641,0.5,-43,86,119_69
119,70,2,loss,tc,1.0,0.8341129000182264,0.39,-43,70,119_70
119,71,2,gain,tc,1.0,0.6687157000123989,0.71,63,89,119_71
119,72,2,loss,tc,1.0,0.4920571999973617,0.65,-13,36,119_72
119,73,2,gain,tc,1.0,0.5026810000126716,0.53,39,74,119_73
119,74,2,loss,tc,1.0,0.5453195000009146,0.38,-52,84,119_74
119,75,2,loss,tc,0.0,0.6319206999905873,0.29,-51,72,119_75
119,76,2,loss,tc,1.0,0.6205034000158776,0.46,-44,81,119_76
119,77,2,gain,tc,1.0,0.5038046000117902,0.38,32,84,119_77
119,78,2,gain,tc,1.0,0.5157302000152413,0.52,43,83,119_78
119,80,2,loss,tc,0.0,0.5716395000054035,0.26,-26,35,119_80
119,122,4,gain,tc,1.0,0.6568225999944843,0.65,23,36,119_122
119,123,4,loss,tc,1.0,0.4567381000088062,0.48,-33,64,119_123
119,124,4,loss,tc,0.0,0.5973480000102427,0.2,-40,50,119_124
119,125,4,loss,tc,1.0,0.6753318999835756,0.34,-50,76,119_125
119,126,4,loss,tc,1.0,0.7179706000024453,0.51,-38,78,119_126
119,127,4,gain,tc,0.0,0.7532317000150215,0.2,6,31,119_127
119,128,4,gain,tc,0.0,0.5451646000146866,0.28,22,78,119_128
119,129,4,gain,tc,0.0,0.6244473000115249,0.28,22,78,119_129
119,130,4,loss,tc,1.0,0.5284688999818172,0.65,-12,33,119_130
119,131,4,gain,tc,1.0,0.5236584999947809,0.59,38,65,119_131
119,132,4,gain,tc,1.0,0.5342282000056002,0.48,43,89,119_132
119,133,4,loss,tc,1.0,0.8662634000065736,0.59,-27,65,119_133
119,134,4,loss,tc,0.0,0.6808745000162162,0.29,-62,88,119_134
119,135,4,loss,tc,1.0,0.4974738000018988,0.35,-53,82,119_135
119,136,4,loss,tc,1.0,0.5087579000100959,0.53,-35,74,119_136
119,137,4,loss,tc,1.0,0.6046964999986812,0.35,-33,51,119_137
119,138,4,loss,tc,1.0,0.4419822999916505,0.52,-37,78,119_138
119,139,4,gain,tc,,,0.48,31,64,119_139
119,140,4,gain,tc,0.0,0.6772775999852456,0.5,43,86,119_140
119,142,4,loss,tc,1.0,0.5279121000203304,0.57,-18,42,119_142
119,143,4,loss,tc,1.0,0.6838294999906793,0.34,-15,22,119_143
119,145,4,loss,tc,1.0,0.5703193000226747,0.12,-75,85,119_145
119,146,4,gain,tc,1.0,0.5796414999931585,0.51,40,78,119_146
119,147,4,gain,tc,1.0,0.5062251999916043,0.51,24,47,119_147
119,148,4,gain,tc,0.0,0.584869099984644,0.38,20,53,119_148
119,149,4,loss,tc,1.0,0.5261383000179194,0.64,-20,55,119_149
119,150,4,gain,tc,0.0,0.6507259999925736,0.21,14,69,119_150
119,152,4,loss,tc,0.0,0.6806920999952126,0.35,-28,43,119_152
119,153,4,gain,tc,0.0,0.5492951000051107,0.66,42,64,119_153
119,154,4,loss,tc,1.0,0.5666582999983802,0.71,-26,89,119_154
119,156,4,gain,tc,0.0,0.4631486000143923,0.24,12,52,119_156
119,157,4,loss,tc,1.0,0.5711005000048317,0.85,-6,40,119_157
119,158,4,gain,tc,0.0,0.6484723000030499,0.27,14,52,119_158
119,159,4,gain,tc,1.0,0.8323948000033852,0.39,34,86,119_159
119,160,4,loss,tc,0.0,0.6030252999917138,0.2,-35,44,119_160
119,161,5,loss,ntc,0.0,4.545744100003503,0.39,-43,70,119_161
119,162,5,loss,ntc,1.0,1.329003999999259,0.59,-27,65,119_162
119,163,5,loss,ntc,0.0,1.3382406999880914,0.34,-15,22,119_163
119,164,5,gain,ntc,0.0,1.0368715000222437,0.2,4,21,119_164
119,165,5,loss,ntc,1.0,1.1333700999966825,0.76,-17,71,119_165
119,166,5,gain,ntc,0.0,4.883333400008269,0.3,8,26,119_166
119,167,5,gain,ntc,1.0,3.0172824999899603,0.41,16,39,119_167
119,169,5,gain,ntc,0.0,1.5884553999931086,0.15,10,70,119_169
119,170,5,loss,ntc,0.0,2.915032399992924,0.29,-51,72,119_170
119,171,5,loss,ntc,1.0,0.898252400016645,0.57,-18,42,119_171
119,172,5,gain,ntc,1.0,1.622874699998647,0.38,32,84,119_172
119,173,5,loss,ntc,0.0,2.9901398999791127,0.5,-43,86,119_173
119,174,5,gain,ntc,0.0,10.912110400007805,0.21,14,69,119_174
119,175,5,gain,ntc,0.0,2.452623899996979,0.29,14,47,119_175
119,176,5,gain,ntc,0.0,7.339917700010119,0.14,6,45,119_176
119,177,5,loss,ntc,1.0,1.0864560000190977,0.54,-15,33,119_177
119,178,5,gain,ntc,0.0,1.231764199997997,0.28,22,78,119_178
119,180,5,gain,ntc,1.0,1.18290079999133,0.63,34,54,119_180
119,181,5,gain,ntc,0.0,7.567524299985962,0.29,21,72,119_181
119,182,5,loss,ntc,0.0,3.793384899996454,0.24,-40,52,119_182
119,183,5,gain,ntc,0.0,4.8593186000071,0.51,40,78,119_183
119,184,5,gain,ntc,0.0,2.0745323000010103,0.35,29,82,119_184
119,185,5,gain,ntc,1.0,5.097207299986621,0.39,18,46,119_185
119,186,5,loss,ntc,1.0,6.128386299998965,0.34,-46,69,119_186
119,187,5,gain,ntc,0.0,3.0076344000117388,0.24,10,40,119_187
119,188,5,gain,ntc,0.0,4.6528862999985,0.48,43,89,119_188
119,189,5,loss,ntc,0.0,2.326802499999758,0.48,-46,89,119_189
119,190,5,loss,ntc,1.0,2.0520877999952063,0.54,-33,71,119_190
119,191,5,gain,ntc,1.0,2.8320082999998704,0.39,34,86,119_191
119,192,5,loss,ntc,0.0,3.624603600008413,0.2,-40,50,119_192
119,193,5,loss,ntc,0.0,5.451859299995704,0.51,-38,78,119_193
119,194,5,loss,ntc,1.0,9.225100499985274,0.1,-70,78,119_194
119,195,5,loss,ntc,1.0,3.2817573999927845,0.52,-37,78,119_195
119,196,5,gain,ntc,0.0,4.490960199997062,0.29,26,88,119_196
119,197,5,loss,ntc,1.0,14.102880999998888,0.45,-31,57,119_197
119,198,5,gain,ntc,1.0,2.0033168000227306,0.64,35,55,119_198
119,199,5,loss,ntc,0.0,3.273257199994987,0.17,-18,22,119_199
119,201,6,loss,tc,0.0,0.6110197999805678,0.25,-66,88,119_201
119,202,6,gain,tc,0.0,0.8369469000026584,0.29,14,47,119_202
119,203,6,loss,tc,1.0,0.4742841999977827,0.66,-22,64,119_203
119,204,6,loss,tc,0.0,0.8222135000105482,0.28,-56,78,119_204
119,205,6,gain,tc,0.0,0.3981069000146817,0.76,54,71,119_205
119,206,6,gain,tc,1.0,0.4100550999864936,0.67,43,64,119_206
119,207,6,loss,tc,0.0,0.4500923000159673,0.17,-18,22,119_207
119,208,6,loss,tc,1.0,0.6093288000265602,0.27,-38,52,119_208
119,210,6,gain,tc,0.0,0.979911699978402,0.45,16,35,119_210
119,211,6,loss,tc,0.0,0.563211600005161,0.1,-62,69,119_211
119,212,6,loss,tc,,,0.29,-33,47,119_212
119,213,6,loss,tc,1.0,0.4564123000018298,0.51,-41,83,119_213
119,214,6,loss,tc,0.0,0.4770239999925252,0.3,-18,26,119_214
119,215,6,loss,tc,0.0,0.6250473000109196,0.24,-40,52,119_215
119,217,6,loss,tc,1.0,0.8082332999911159,0.41,-18,30,119_217
119,218,6,loss,tc,1.0,0.6668895999900997,0.39,-13,22,119_218
119,220,6,gain,tc,0.0,0.7267407999897841,0.39,18,46,119_220
119,221,6,loss,tc,1.0,0.9033712999953424,0.45,-31,57,119_221
119,222,6,gain,tc,0.0,0.6112693999893963,0.46,21,45,119_222
119,223,6,gain,tc,0.0,0.8625662999984343,0.39,27,70,119_223
119,224,6,loss,tc,1.0,0.6198933999985456,0.38,-33,53,119_224
119,225,6,loss,tc,1.0,0.7057921000232454,0.39,-52,86,119_225
119,226,6,loss,tc,1.0,0.4411299000203144,0.67,-21,64,119_226
119,227,6,loss,tc,1.0,0.5890446999983396,0.76,-17,71,119_227
119,228,6,loss,tc,0.0,0.5663477999914903,0.2,-17,21,119_228
119,229,6,gain,tc,1.0,0.5296192000096198,0.41,16,39,119_229
119,230,6,gain,tc,0.0,0.7348723000031896,0.35,18,51,119_230
119,231,6,gain,tc,0.0,0.6995132000010926,0.18,9,50,119_231
119,233,6,gain,tc,0.0,0.8894813000224531,0.34,26,76,119_233
119,235,6,gain,tc,0.0,0.4273728000116534,0.15,10,70,119_235
119,237,6,gain,tc,0.0,0.5539197000034619,0.58,19,32,119_237
119,238,6,gain,tc,0.0,0.7032328999775928,0.39,9,22,119_238
119,239,6,gain,tc,0.0,0.908504000020912,0.1,7,69,119_239
119,240,6,gain,tc,0.0,0.903714799991576,0.4,26,66,119_240
119,241,7,loss,ntc,0.0,4.259719099994982,0.21,-55,69,119_241
119,242,7,gain,ntc,0.0,3.47969199999352,0.41,12,30,119_242
119,244,7,gain,ntc,1.0,2.852166399999988,0.28,6,21,119_244
119,245,7,gain,ntc,0.0,4.027409600006649,0.39,33,85,119_245
119,247,7,loss,ntc,0.0,2.223914500005776,0.35,-28,43,119_247
119,248,7,loss,ntc,1.0,1.236536199983675,0.71,-26,89,119_248
119,249,7,gain,ntc,1.0,1.917174799978966,0.1,7,69,119_249
119,250,7,loss,ntc,1.0,3.7237869999953546,0.2,-25,31,119_250
119,251,7,loss,ntc,0.0,3.1563976000179537,0.39,-52,85,119_251
119,252,7,loss,ntc,0.0,2.3415690999827348,0.35,-33,51,119_252
119,253,7,gain,ntc,1.0,1.426852999982657,0.59,38,65,119_253
119,254,7,gain,ntc,0.0,2.0367668000108097,0.34,26,76,119_254
119,255,7,gain,ntc,0.0,2.1880807999987155,0.48,31,64,119_255
119,256,7,loss,ntc,0.0,2.727290400012862,0.52,-40,83,119_256
119,257,7,loss,ntc,0.0,4.418622400000459,0.25,-66,88,119_257
119,258,7,loss,ntc,1.0,2.9371055999945384,0.15,-60,70,119_258
119,259,7,gain,ntc,1.0,1.7843969000095967,0.2,10,50,119_259
119,260,7,loss,ntc,0.0,3.1363854000228457,0.43,-22,38,119_260
119,261,7,loss,ntc,1.0,2.075635399989551,0.64,-20,55,119_261
119,262,7,loss,ntc,0.0,2.7281837000045925,0.24,-30,40,119_262
119,265,7,gain,ntc,1.0,2.1419201999960933,0.1,6,56,119_265
119,266,7,loss,ntc,1.0,6.509866199980024,0.65,-12,33,119_266
119,267,7,loss,ntc,0.0,11.257802800013453,0.28,-56,78,119_267
119,268,7,gain,ntc,0.0,3.986979300010717,0.24,12,52,119_268
119,269,7,gain,ntc,0.0,1.8961903000017628,0.52,41,78,119_269
119,270,7,loss,ntc,0.0,3.5574814999999944,0.38,-52,84,119_270
119,271,7,loss,ntc,0.0,2.164749299990945,0.25,-59,79,119_271
119,273,7,gain,ntc,0.0,2.633299999986775,0.25,20,79,119_273
119,274,7,loss,ntc,0.0,5.041204600012861,0.46,-24,45,119_274
119,275,7,loss,ntc,0.0,9.361224599997511,0.53,-35,74,119_275
119,276,7,gain,ntc,1.0,1.583046500018099,0.2,9,44,119_276
119,277,7,gain,ntc,1.0,2.0888710000144783,0.17,4,22,119_277
119,278,7,gain,ntc,0.0,0.8626957999949809,0.38,20,53,119_278
119,279,7,gain,ntc,1.0,4.281434800010175,0.39,9,22,119_279
119,280,7,gain,ntc,0.0,1.4853855000110343,0.28,22,78,119_280
119,281,8,loss,tc,0.0,0.9699768999998925,0.51,-23,47,119_281
119,282,8,gain,tc,0.0,0.686530999984825,0.36,12,32,119_282
119,283,8,gain,tc,0.0,0.5539343999989796,0.35,15,43,119_283
119,284,8,gain,tc,1.0,0.8791112000180874,0.45,26,57,119_284
119,285,8,gain,tc,0.0,0.6297403000062332,0.54,38,71,119_285
119,286,8,gain,tc,0.0,0.7683915000234265,0.43,16,38,119_286
119,287,8,gain,tc,0.0,0.6910191000206396,0.78,55,71,119_287
119,288,8,gain,tc,1.0,0.7169426000036765,0.57,24,42,119_288
119,289,8,loss,tc,0.0,0.8196275999944191,0.25,-59,79,119_289
119,290,8,loss,tc,1.0,0.7342104999988806,0.2,-25,31,119_290
119,292,8,gain,tc,0.0,0.7801316000113729,0.2,10,50,119_292
119,294,8,loss,tc,0.0,0.6506810999999288,0.1,-50,56,119_294
119,295,8,gain,tc,0.0,0.5913244000112172,0.29,26,88,119_295
119,296,8,loss,tc,0.0,0.7486196999961976,0.39,-28,46,119_296
119,297,8,loss,tc,1.0,0.5538611999945715,0.41,-23,39,119_297
119,298,8,loss,tc,1.0,0.7291144999908283,0.46,-24,45,119_298
119,299,8,gain,tc,0.0,0.521064500004286,0.17,4,22,119_299
119,300,8,loss,tc,,,0.28,-15,21,119_300
119,301,8,gain,tc,0.0,0.6695853999990504,0.39,33,85,119_301
119,302,8,loss,tc,1.0,0.6329284000094049,0.58,-13,32,119_302
119,303,8,gain,tc,0.0,0.9188632000004872,0.25,20,79,119_303
119,304,8,loss,tc,1.0,0.5888130000093952,0.63,-20,54,119_304
119,305,8,gain,tc,0.0,0.7041092000145,0.35,29,82,119_305
119,306,8,gain,tc,1.0,0.5614369999966584,0.46,37,81,119_306
119,307,8,gain,tc,0.0,0.6889900999958627,0.14,6,45,119_307
119,309,8,gain,tc,1.0,0.6018690000055358,0.2,4,21,119_309
119,310,8,gain,tc,0.0,0.7378798999998253,0.65,21,33,119_310
119,311,8,loss,tc,1.0,0.5451386999920942,0.54,-33,71,119_311
119,312,8,gain,tc,1.0,0.6138452000159305,0.85,34,40,119_312
119,313,8,loss,tc,,,0.1,-70,78,119_313
119,314,8,loss,tc,1.0,0.5230151999858208,0.78,-16,71,119_314
119,315,8,gain,tc,1.0,0.6263395000132732,0.63,34,54,119_315
119,316,8,gain,tc,1.0,0.6702797999896575,0.12,10,85,119_316
119,317,8,loss,tc,0.0,0.7914861000026576,0.14,-39,45,119_317
119,318,8,loss,tc,1.0,0.6108573999954388,0.34,-46,69,119_318
119,319,8,loss,tc,1.0,0.5967359000060242,0.48,-46,89,119_319
119,320,8,loss,tc,1.0,0.6694064000039361,0.39,-52,85,119_320
122,1,1,loss,ntc,0.0,7.080698100000063,0.36,-20,32,122_1
122,3,1,loss,ntc,1.0,2.1112299999999777,0.59,-27,65,122_3
122,4,1,gain,ntc,1.0,4.2384218000001965,0.15,10,70,122_4
122,5,1,loss,ntc,1.0,1.0696905999998307,0.51,-41,83,122_5
122,6,1,loss,ntc,1.0,2.5316014,0.43,-22,38,122_6
122,7,1,gain,ntc,0.0,3.07420349999984,0.35,15,43,122_7
122,8,1,loss,ntc,0.0,3.6121296000001166,0.27,-38,52,122_8
122,9,1,loss,ntc,1.0,1.0894432000000052,0.66,-22,64,122_9
122,10,1,loss,ntc,0.0,8.66869399999996,0.29,-62,88,122_10
122,11,1,loss,ntc,1.0,1.0032796000000417,0.65,-13,36,122_11
122,12,1,gain,ntc,1.0,3.027234700000008,0.39,27,70,122_12
122,14,1,gain,ntc,1.0,1.3250711000000592,0.45,16,35,122_14
122,17,1,gain,ntc,1.0,1.764188500000273,0.48,43,89,122_17
122,18,1,gain,ntc,1.0,1.8747700999997503,0.34,23,69,122_18
122,19,1,gain,ntc,1.0,1.277415800000199,0.35,18,51,122_19
122,20,1,gain,ntc,1.0,1.838037600000007,0.27,14,52,122_20
122,21,1,loss,ntc,1.0,0.925274800000352,0.45,-31,57,122_21
122,22,1,loss,ntc,1.0,2.8258544000000256,0.15,-60,70,122_22
122,23,1,gain,ntc,1.0,2.1171243999997387,0.14,6,45,122_23
122,24,1,gain,ntc,1.0,0.9830606000000444,0.53,39,74,122_24
122,25,1,gain,ntc,1.0,0.9229347000000416,0.54,18,33,122_25
122,26,1,gain,ntc,1.0,2.9482622999998966,0.26,9,35,122_26
122,27,1,gain,ntc,1.0,1.527492700000039,0.52,41,78,122_27
122,28,1,loss,ntc,1.0,1.3254062000000886,0.39,-13,22,122_28
122,29,1,gain,ntc,1.0,1.3693211999998312,0.39,9,22,122_29
122,30,1,loss,ntc,1.0,2.04391620000024,0.2,-17,21,122_30
122,31,1,gain,ntc,1.0,3.8991903000001,0.45,26,57,122_31
122,32,1,loss,ntc,1.0,2.0257786000001943,0.54,-33,71,122_32
122,33,1,loss,ntc,0.0,4.743714400000044,0.24,-40,52,122_33
122,34,1,loss,ntc,1.0,1.2196215999997548,0.45,-19,35,122_34
122,35,1,gain,ntc,1.0,2.3388952999998764,0.66,42,64,122_35
122,36,1,loss,ntc,1.0,3.934183500000018,0.25,-66,88,122_36
122,38,1,gain,ntc,1.0,2.3960275000004003,0.39,33,85,122_38
122,39,1,gain,ntc,1.0,2.612677700000404,0.28,22,78,122_39
122,40,1,loss,ntc,0.0,4.687237300000106,0.35,-53,82,122_40
122,41,2,gain,tc,1.0,0.7380929999999353,0.59,38,65,122_41
122,42,2,loss,tc,0.0,0.721351200000754,0.2,-25,31,122_42
122,44,2,gain,tc,0.0,0.7005966999995508,0.28,6,21,122_44
122,45,2,loss,tc,1.0,0.4778839999999036,0.34,-15,22,122_45
122,46,2,loss,tc,1.0,0.5745950999998968,0.5,-43,86,122_46
122,47,2,gain,tc,1.0,0.704510599999594,0.52,43,83,122_47
122,48,2,gain,tc,1.0,0.5691286000001128,0.58,19,32,122_48
122,49,2,gain,tc,1.0,0.6984858000005261,0.65,23,36,122_49
122,50,2,loss,tc,1.0,0.6616403999996692,0.48,-33,64,122_50
122,51,2,loss,tc,,,0.38,-52,84,122_51
122,52,2,gain,tc,1.0,0.3388713000003918,0.71,63,89,122_52
122,53,2,loss,tc,1.0,0.3994928000001891,0.54,-15,33,122_53
122,54,2,gain,tc,0.0,0.4627876000004107,0.28,22,78,122_54
122,56,2,gain,tc,1.0,0.4493355999993582,0.48,43,89,122_56
122,57,2,loss,tc,1.0,0.421991799999887,0.63,-20,54,122_57
122,58,2,loss,tc,1.0,0.446563900000001,0.14,-39,45,122_58
122,59,2,gain,tc,0.0,0.431949199999508,0.14,6,45,122_59
122,60,2,gain,tc,0.0,0.4938863000006677,0.39,27,70,122_60
122,61,2,loss,tc,0.0,0.6058153000003585,0.17,-18,22,122_61
122,62,2,loss,tc,1.0,0.4557975999996415,0.45,-31,57,122_62
122,63,2,gain,tc,1.0,0.5423842999998669,0.39,33,85,122_63
122,64,2,gain,tc,1.0,0.473664699999972,0.51,40,78,122_64
122,65,2,gain,tc,1.0,0.6756213999997271,0.41,16,39,122_65
122,66,2,loss,tc,0.0,0.4675823999996282,0.39,-43,70,122_66
122,67,2,gain,tc,0.0,0.6048240000000078,0.17,4,22,122_67
122,68,2,gain,tc,1.0,0.448159300000043,0.1,6,56,122_68
122,69,2,loss,tc,1.0,0.6493768999998792,0.27,-38,52,122_69
122,70,2,loss,tc,1.0,0.3799792999998317,0.51,-38,78,122_70
122,71,2,gain,tc,1.0,0.5487167999999656,0.46,37,81,122_71
122,72,2,loss,tc,1.0,0.5192455000005793,0.65,-12,33,122_72
122,73,2,gain,tc,0.0,0.5292472999999518,0.64,35,55,122_73
122,74,2,loss,tc,0.0,0.5899323000003278,0.18,-41,50,122_74
122,75,2,loss,tc,0.0,0.6891046000000642,0.29,-62,88,122_75
122,76,2,loss,tc,1.0,0.5198532999993404,0.51,-23,47,122_76
122,77,2,gain,tc,0.0,0.4943268000006355,0.1,8,78,122_77
122,78,2,loss,tc,1.0,0.4010031000007075,0.65,-13,36,122_78
122,80,2,loss,tc,1.0,0.4689352000004874,0.85,-6,40,122_80
122,81,3,gain,ntc,1.0,3.241817500000252,0.2,4,21,122_81
122,82,3,loss,ntc,1.0,0.8004128000002311,0.46,-24,45,122_82
122,83,3,gain,ntc,1.0,0.92894780000006,0.34,26,76,122_83
122,85,3,gain,ntc,1.0,1.7622466000002532,0.34,7,22,122_85
122,86,3,loss,ntc,1.0,2.472813999999744,0.52,-37,78,122_86
122,87,3,loss,ntc,1.0,2.2314195999997537,0.29,-33,47,122_87
122,88,3,loss,ntc,0.0,2.407990100000461,0.2,-35,44,122_88
122,89,3,loss,ntc,0.0,1.939288300000044,0.28,-56,78,122_89
122,90,3,loss,ntc,1.0,0.8911416000000827,0.64,-20,55,122_90
122,91,3,gain,ntc,1.0,1.9684616000004096,0.29,14,47,122_91
122,92,3,gain,ntc,1.0,0.995756799999981,0.46,21,45,122_92
122,93,3,gain,ntc,1.0,1.030364400000508,0.43,16,38,122_93
122,94,3,gain,ntc,1.0,1.1776529999997365,0.59,38,65,122_94
122,95,3,gain,ntc,0.0,3.888251399999717,0.21,14,69,122_95
122,96,3,loss,ntc,0.0,3.64147580000008,0.39,-52,86,122_96
122,97,3,loss,ntc,0.0,2.974710100000266,0.2,-25,31,122_97
122,99,3,gain,ntc,1.0,1.0259525000001304,0.54,38,71,122_99
122,101,3,loss,ntc,0.0,1.6051391999999396,0.18,-41,50,122_101
122,102,3,gain,ntc,0.0,2.021033500000158,0.3,8,26,122_102
122,103,3,loss,ntc,1.0,0.6950406000005387,0.51,-23,47,122_103
122,104,3,gain,ntc,0.0,1.8962433000006056,0.41,16,39,122_104
122,105,3,loss,ntc,1.0,1.0128966000002038,0.85,-6,40,122_105
122,106,3,gain,ntc,1.0,0.970129299999826,0.51,42,83,122_106
122,107,3,loss,ntc,0.0,2.665380699999332,0.28,-15,21,122_107
122,108,3,loss,ntc,0.0,3.009357499999169,0.38,-52,84,122_108
122,109,3,gain,ntc,1.0,3.331262600000628,0.17,4,22,122_109
122,110,3,loss,ntc,1.0,3.579136299999845,0.24,-30,40,122_110
122,111,3,loss,ntc,1.0,0.6603607999995802,0.53,-35,74,122_111
122,112,3,gain,ntc,1.0,1.881017900000188,0.28,22,78,122_112
122,113,3,loss,ntc,1.0,3.136975999999777,0.1,-62,69,122_113
122,114,3,gain,ntc,0.0,3.088893299999654,0.2,10,50,122_114
122,115,3,loss,ntc,1.0,3.512152799999967,0.14,-39,45,122_115
122,116,3,gain,ntc,1.0,2.3461027000003014,0.1,7,69,122_116
122,117,3,loss,ntc,1.0,0.9206512999999176,0.39,-28,46,122_117
122,118,3,gain,ntc,1.0,1.8012797000001228,0.25,22,88,122_118
122,119,3,loss,ntc,1.0,0.8792080999992322,0.39,-52,85,122_119
122,120,3,gain,ntc,0.0,5.02981120000004,0.65,23,36,122_120
122,121,4,loss,tc,0.0,0.5919708000001265,0.15,-60,70,122_121
122,122,4,gain,tc,1.0,0.581326600000466,0.4,26,66,122_122
122,123,4,gain,tc,1.0,0.554639899999529,0.24,10,40,122_123
122,124,4,gain,tc,0.0,0.6912232000004224,0.5,43,86,122_124
122,125,4,loss,tc,1.0,0.5831743999997343,0.64,-20,55,122_125
122,126,4,loss,tc,1.0,0.4978137999996761,0.76,-17,71,122_126
122,127,4,gain,tc,0.0,0.5378073000001677,0.29,21,72,122_127
122,128,4,gain,tc,1.0,0.511074699999881,0.29,26,88,122_128
122,129,4,gain,tc,,,0.35,18,51,122_129
122,130,4,loss,tc,1.0,0.4088866000001872,0.43,-22,38,122_130
122,131,4,loss,tc,1.0,0.4208005999998931,0.51,-41,83,122_131
122,132,4,gain,tc,0.0,0.6474815000001399,0.43,16,38,122_132
122,133,4,loss,tc,0.0,0.5707621999999901,0.1,-50,56,122_133
122,135,4,gain,tc,1.0,0.5793179000002056,0.67,43,64,122_135
122,136,4,loss,tc,1.0,0.5085791999999856,0.41,-23,39,122_136
122,137,4,loss,tc,0.0,0.6986040000001594,0.29,-33,47,122_137
122,138,4,loss,tc,0.0,0.6365399999995134,0.29,-51,72,122_138
122,139,4,loss,tc,1.0,0.4391285000001517,0.58,-13,32,122_139
122,140,4,loss,tc,0.0,0.5837486999998873,0.24,-30,40,122_140
122,141,4,gain,tc,0.0,0.6223807000005763,0.36,12,32,122_141
122,142,4,gain,tc,1.0,0.5897156000000905,0.54,18,33,122_142
122,144,4,loss,tc,0.0,0.6302759000000151,0.28,-56,78,122_144
122,145,4,loss,tc,0.0,0.6075279999995473,0.2,-40,50,122_145
122,146,4,loss,tc,1.0,0.7214730000005147,0.28,-56,78,122_146
122,147,4,gain,tc,1.0,0.591469899999538,0.12,10,85,122_147
122,148,4,loss,tc,1.0,0.5201258999995844,0.25,-59,79,122_148
122,149,4,gain,tc,0.0,0.5526397999992696,0.25,22,88,122_149
122,150,4,gain,tc,1.0,0.4780151999993904,0.76,54,71,122_150
122,151,4,gain,tc,1.0,0.493916899999931,0.52,41,78,122_151
122,152,4,gain,tc,1.0,0.6231932000000597,0.41,12,30,122_152
122,153,4,loss,tc,1.0,0.4731119999996735,0.71,-26,89,122_153
122,154,4,gain,tc,1.0,0.5791235000006054,0.21,14,69,122_154
122,155,4,gain,tc,1.0,0.5783591999997952,0.39,9,22,122_155
122,157,4,loss,tc,0.0,0.5996744000003673,0.24,-40,52,122_157
122,158,4,loss,tc,1.0,0.4429186999996091,0.52,-40,83,122_158
122,159,4,gain,tc,0.0,0.7028916999997818,0.15,10,70,122_159
122,160,4,gain,tc,1.0,0.5715116999999736,0.26,9,35,122_160
122,161,5,loss,ntc,0.0,3.13794549999966,0.12,-75,85,122_161
122,162,5,loss,ntc,1.0,2.6912465000004886,0.26,-26,35,122_162
122,163,5,gain,ntc,1.0,1.7251689000004262,0.29,21,72,122_163
122,164,5,loss,ntc,1.0,2.822995599999558,0.3,-18,26,122_164
122,165,5,gain,ntc,1.0,1.1229902000004586,0.67,43,64,122_165
122,166,5,loss,ntc,1.0,2.32290280000052,0.25,-59,79,122_166
122,167,5,loss,ntc,1.0,0.7661428999999771,0.67,-21,64,122_167
122,168,5,loss,ntc,1.0,1.0574118000004091,0.34,-50,76,122_168
122,169,5,loss,ntc,1.0,0.7340095999998084,0.48,-33,64,122_169
122,170,5,gain,ntc,1.0,1.044605500000216,0.29,26,88,122_170
122,172,5,gain,ntc,1.0,2.214494600000762,0.65,21,33,122_172
122,173,5,loss,ntc,1.0,1.0644560999999158,0.76,-17,71,122_173
122,174,5,gain,ntc,1.0,1.3043886999994356,0.39,34,86,122_174
122,175,5,loss,ntc,1.0,1.3929668000000677,0.48,-46,89,122_175
122,176,5,gain,ntc,1.0,0.920837499999834,0.64,35,55,122_176
122,177,5,loss,ntc,1.0,0.8434773000008136,0.35,-33,51,122_177
122,178,5,loss,ntc,1.0,1.9954456999994363,0.21,-55,69,122_178
122,179,5,loss,ntc,1.0,0.966685100000177,0.65,-12,33,122_179
122,181,5,gain,ntc,1.0,0.8758563999999751,0.71,63,89,122_181
122,182,5,gain,ntc,1.0,2.459828899999593,0.1,8,78,122_182
122,183,5,loss,ntc,1.0,1.5251086999996917,0.46,-44,81,122_183
122,184,5,gain,ntc,1.0,2.5677083000000493,0.25,20,79,122_184
122,185,5,gain,ntc,1.0,1.6842157000000952,0.2,6,31,122_185
122,186,5,gain,ntc,1.0,1.9348648999994111,0.35,29,82,122_186
122,187,5,gain,ntc,1.0,0.8761018000004697,0.48,31,64,122_187
122,188,5,gain,ntc,1.0,1.4586939000000712,0.18,9,50,122_188
122,189,5,gain,ntc,1.0,1.0005891000000702,0.57,24,42,122_189
122,190,5,gain,ntc,1.0,0.8473082000000431,0.5,43,86,122_190
122,191,5,gain,ntc,1.0,1.174571399999877,0.58,19,32,122_191
122,192,5,gain,ntc,1.0,1.3064486999992369,0.28,6,21,122_192
122,193,5,loss,ntc,1.0,1.0150980999997046,0.35,-28,43,122_193
122,194,5,gain,ntc,1.0,1.064340799999627,0.4,26,66,122_194
122,195,5,gain,ntc,1.0,0.8010199999998804,0.38,20,53,122_195
122,197,5,loss,ntc,1.0,0.6261848000003738,0.39,-43,70,122_197
122,198,5,loss,ntc,1.0,0.6560994000001301,0.41,-18,30,122_198
122,199,5,loss,ntc,1.0,0.6260801000007632,0.4,-40,66,122_199
122,200,5,loss,ntc,1.0,0.6112864999995509,0.34,-15,22,122_200
122,201,6,gain,tc,1.0,0.5320181000006414,0.53,39,74,122_201
122,202,6,gain,tc,1.0,0.5266831999997521,0.35,15,43,122_202
122,203,6,gain,tc,0.0,0.5340147999995679,0.2,10,50,122_203
122,204,6,loss,tc,0.0,0.6632538999992903,0.21,-55,69,122_204
122,205,6,loss,tc,1.0,0.4085019999993164,0.35,-28,43,122_205
122,206,6,loss,tc,1.0,0.42917800000032,0.46,-24,45,122_206
122,208,6,gain,tc,0.0,0.5176982000002681,0.51,42,83,122_208
122,209,6,gain,tc,1.0,0.4810568000002604,0.65,21,33,122_209
122,210,6,gain,tc,0.0,0.4576280999999653,0.18,9,50,122_210
122,211,6,gain,tc,0.0,0.5596204000003127,0.51,24,47,122_211
122,212,6,gain,tc,0.0,0.4509358999994219,0.28,22,78,122_212
122,213,6,loss,tc,1.0,0.5314557000001514,0.35,-53,82,122_213
122,214,6,loss,tc,1.0,0.4541231999992305,0.39,-28,46,122_214
122,215,6,gain,tc,1.0,0.6353919000002861,0.78,55,71,122_215
122,216,6,loss,tc,1.0,0.453298999999788,0.39,-52,86,122_216
122,217,6,gain,tc,1.0,0.7552289999994173,0.35,29,82,122_217
122,218,6,loss,tc,1.0,0.4805697000001601,0.45,-19,35,122_218
122,219,6,gain,tc,1.0,0.7665438000003633,0.34,7,22,122_219
122,220,6,loss,tc,1.0,0.575118100000509,0.59,-27,65,122_220
122,221,6,loss,tc,1.0,0.5384533999995256,0.54,-33,71,122_221
122,222,6,gain,tc,1.0,0.6690263000000414,0.38,20,53,122_222
122,223,6,gain,tc,1.0,0.4143130000002202,0.63,34,54,122_223
122,224,6,loss,tc,1.0,0.5329724000002898,0.38,-33,53,122_224
122,226,6,loss,tc,1.0,0.4141382999996494,0.53,-35,74,122_226
122,227,6,loss,tc,1.0,0.5421684000002642,0.35,-33,51,122_227
122,228,6,loss,tc,1.0,0.8527822000005472,0.3,-18,26,122_228
122,229,6,gain,tc,0.0,0.5227337999995143,0.24,12,52,122_229
122,230,6,gain,tc,0.0,0.6533844000005047,0.2,6,31,122_230
122,231,6,loss,tc,1.0,0.5385974999999235,0.4,-40,66,122_231
122,232,6,gain,tc,0.0,0.5398688000004768,0.2,4,21,122_232
122,233,6,loss,tc,0.0,0.6824885999994876,0.1,-70,78,122_233
122,234,6,gain,tc,1.0,0.4511935999998968,0.34,23,69,122_234
122,235,6,loss,tc,1.0,0.7951281999994535,0.34,-50,76,122_235
122,237,6,gain,tc,1.0,0.7916439000000537,0.39,34,86,122_237
122,238,6,gain,tc,1.0,0.6250077000004239,0.57,24,42,122_238
122,239,6,loss,tc,1.0,0.5049562000003789,0.34,-46,69,122_239
122,240,6,gain,tc,0.0,0.5527974000005997,0.29,14,47,122_240
122,241,7,gain,ntc,0.0,1.9667095000004335,0.1,6,56,122_241
122,242,7,loss,ntc,0.0,1.5592870000000405,0.28,-56,78,122_242
122,243,7,loss,ntc,1.0,0.8812566000005972,0.5,-43,86,122_243
122,244,7,gain,ntc,1.0,0.9998233000005712,0.78,55,71,122_244
122,245,7,loss,ntc,1.0,0.9411015000005136,0.71,-26,89,122_245
122,246,7,gain,ntc,1.0,1.0144020000007004,0.85,34,40,122_246
122,247,7,gain,ntc,1.0,1.2623093000001973,0.24,12,52,122_247
122,248,7,loss,ntc,1.0,0.7236204000000726,0.57,-18,42,122_248
122,249,7,gain,ntc,1.0,1.2335974999996324,0.39,18,46,122_249
122,250,7,loss,ntc,1.0,0.7361519999994925,0.38,-33,53,122_250
122,251,7,loss,ntc,1.0,0.6547402000005604,0.63,-20,54,122_251
122,253,7,gain,ntc,1.0,0.6233043000001999,0.76,54,71,122_253
122,254,7,gain,ntc,1.0,1.479236399999536,0.2,9,44,122_254
122,255,7,loss,ntc,1.0,0.6731933000000936,0.34,-46,69,122_255
122,256,7,gain,ntc,1.0,1.2257528000000093,0.24,10,40,122_256
122,257,7,gain,ntc,1.0,0.8070115000000442,0.41,12,30,122_257
122,258,7,loss,ntc,1.0,0.5763575999999375,0.58,-13,32,122_258
122,259,7,loss,ntc,1.0,1.8935610999997152,0.1,-50,56,122_259
122,260,7,gain,ntc,1.0,0.7015792000001966,0.63,34,54,122_260
122,261,7,gain,ntc,1.0,0.6355107999997927,0.51,40,78,122_261
122,264,7,loss,ntc,1.0,1.3499339999998483,0.1,-70,78,122_264
122,265,7,loss,ntc,1.0,1.5145320000001448,0.2,-40,50,122_265
122,266,7,loss,ntc,1.0,0.5265311999992264,0.54,-15,33,122_266
122,267,7,gain,ntc,1.0,0.9071102999996584,0.36,12,32,122_267
122,269,7,loss,ntc,1.0,0.7929613000005702,0.52,-40,83,122_269
122,271,7,loss,ntc,1.0,1.0628533999997671,0.17,-18,22,122_271
122,272,7,loss,ntc,1.0,0.7034403999996357,0.29,-51,72,122_272
122,273,7,gain,ntc,0.0,0.9067500999999538,0.12,10,85,122_273
122,274,7,gain,ntc,1.0,0.9066915000003064,0.52,43,83,122_274
122,275,7,loss,ntc,1.0,0.7685358999997334,0.78,-16,71,122_275
122,276,7,gain,ntc,1.0,1.3811865000006949,0.38,32,84,122_276
122,277,7,loss,ntc,1.0,1.1138089999994918,0.41,-23,39,122_277
122,278,7,gain,ntc,1.0,0.9770510000007562,0.46,37,81,122_278
122,279,7,loss,ntc,1.0,0.5582981999996264,0.51,-38,78,122_279
122,280,7,gain,ntc,1.0,0.6555818000006184,0.51,24,47,122_280
122,281,8,loss,tc,1.0,0.4143135000003894,0.57,-18,42,122_281
122,282,8,gain,tc,1.0,0.5576701999998477,0.45,16,35,122_282
122,283,8,loss,tc,1.0,0.4715521999996781,0.67,-21,64,122_283
122,284,8,gain,tc,1.0,0.5515090999997483,0.48,31,64,122_284
122,285,8,gain,tc,1.0,0.5621185999998488,0.66,42,64,122_285
122,287,8,gain,tc,0.0,0.4900081999994654,0.38,32,84,122_287
122,288,8,loss,tc,1.0,0.5253070999997362,0.26,-26,35,122_288
122,289,8,loss,tc,1.0,0.5186118000001443,0.39,-52,85,122_289
122,290,8,loss,tc,1.0,0.4265737999994599,0.2,-17,21,122_290
122,291,8,gain,tc,1.0,0.4605236999996123,0.39,18,46,122_291
122,292,8,loss,tc,1.0,0.4538233000002947,0.52,-37,78,122_292
122,293,8,loss,tc,1.0,0.439783300000272,0.46,-44,81,122_293
122,294,8,loss,tc,1.0,0.4943617000008089,0.41,-18,30,122_294
122,295,8,loss,tc,1.0,0.5043908999996347,0.39,-13,22,122_295
122,296,8,loss,tc,1.0,0.4949698000000353,0.66,-22,64,122_296
122,297,8,loss,tc,1.0,0.4695302000000083,0.78,-16,71,122_297
122,298,8,loss,tc,1.0,0.5868582000002789,0.36,-20,32,122_298
122,299,8,gain,tc,1.0,0.8375025000004825,0.34,26,76,122_299
122,300,8,loss,tc,1.0,0.5094355000001087,0.25,-66,88,122_300
122,301,8,loss,tc,1.0,0.4386894999997821,0.48,-46,89,122_301
122,302,8,gain,tc,1.0,0.6399782999997115,0.2,9,44,122_302
122,304,8,gain,tc,0.0,0.4592401999998401,0.45,26,57,122_304
122,306,8,gain,tc,1.0,0.4737845999998171,0.54,38,71,122_306
122,308,8,loss,tc,0.0,0.5650534999995216,0.1,-62,69,122_308
122,309,8,gain,tc,0.0,0.4370607000000746,0.27,14,52,122_309
122,310,8,gain,tc,1.0,0.640271400000529,0.3,8,26,122_310
122,312,8,gain,tc,1.0,0.4681604999996125,0.46,21,45,122_312
122,313,8,gain,tc,0.0,0.4181566999995993,0.1,7,69,122_313
122,315,8,gain,tc,1.0,0.7107002999991892,0.85,34,40,122_315
122,317,8,loss,tc,1.0,0.5819245000002411,0.28,-15,21,122_317
122,318,8,loss,tc,1.0,0.6032091999995828,0.2,-35,44,122_318
122,319,8,gain,tc,1.0,0.6951295000008031,0.25,20,79,122_319
122,320,8,loss,tc,0.0,0.6345110000002023,0.12,-75,85,122_320
123,2,1,gain,ntc,0.0,5.401061500000651,0.29,26,88,123_2
123,3,1,gain,ntc,1.0,3.666352600004757,0.57,24,42,123_3
123,4,1,loss,ntc,0.0,7.742951899999753,0.63,-20,54,123_4
123,5,1,loss,ntc,1.0,3.832846999997855,0.36,-20,32,123_5
123,6,1,gain,ntc,1.0,4.3620865999982925,0.12,10,85,123_6
123,7,1,loss,ntc,0.0,3.4220048999995925,0.34,-15,22,123_7
123,8,1,loss,ntc,1.0,7.552559300005669,0.46,-44,81,123_8
123,9,1,gain,ntc,0.0,5.631083899992518,0.59,38,65,123_9
123,11,1,loss,ntc,1.0,3.46689179999521,0.51,-23,47,123_11
123,12,1,loss,ntc,1.0,6.616850300008082,0.54,-15,33,123_12
123,13,1,gain,ntc,0.0,3.356095200011623,0.65,21,33,123_13
123,14,1,loss,ntc,1.0,3.0387110999872675,0.43,-22,38,123_14
123,15,1,gain,ntc,0.0,6.7179906999954255,0.36,12,32,123_15
123,16,1,gain,ntc,1.0,7.832517799994093,0.15,10,70,123_16
123,18,1,gain,ntc,1.0,1.7269978999975135,0.28,22,78,123_18
123,19,1,loss,ntc,1.0,3.023578899999848,0.28,-15,21,123_19
123,22,1,loss,ntc,1.0,2.419376499994541,0.41,-23,39,123_22
123,25,1,loss,ntc,1.0,2.8297802999877604,0.38,-33,53,123_25
123,26,1,gain,ntc,1.0,2.833038299999316,0.29,14,47,123_26
123,27,1,gain,ntc,1.0,4.524304000005941,0.67,43,64,123_27
123,28,1,gain,ntc,0.0,1.89751919999253,0.65,23,36,123_28
123,29,1,loss,ntc,1.0,5.71815030000289,0.48,-33,64,123_29
123,30,1,loss,ntc,1.0,7.755403100003605,0.29,-51,72,123_30
123,31,1,loss,ntc,1.0,4.341943799998262,0.39,-43,70,123_31
123,32,1,gain,ntc,0.0,2.6918722999980678,0.5,43,86,123_32
123,33,1,loss,ntc,0.0,6.999116700011655,0.78,-16,71,123_33
123,34,1,gain,ntc,1.0,3.142973300011363,0.41,12,30,123_34
123,35,1,gain,ntc,1.0,4.94888679998985,0.35,15,43,123_35
123,36,1,gain,ntc,1.0,3.839497799999663,0.21,14,69,123_36
123,37,1,loss,ntc,1.0,3.55543010000838,0.35,-53,82,123_37
123,40,1,loss,ntc,0.0,2.2058606000064174,0.57,-18,42,123_40
123,41,2,gain,tc,0.0,0.5659872999967774,0.36,12,32,123_41
123,42,2,loss,tc,0.0,0.7106423000077484,0.39,-13,22,123_42
123,43,2,loss,tc,0.0,0.5346071999956621,0.85,-6,40,123_43
123,44,2,loss,tc,1.0,0.8205593999882694,0.15,-60,70,123_44
123,45,2,gain,tc,0.0,0.6044748999993317,0.28,22,78,123_45
123,46,2,loss,tc,1.0,0.5804422000073828,0.38,-52,84,123_46
123,47,2,gain,tc,0.0,0.6410618999943836,0.29,26,88,123_47
123,48,2,loss,tc,0.0,0.5043930999963777,0.48,-33,64,123_48
123,49,2,loss,tc,0.0,0.6402983000007225,0.1,-70,78,123_49
123,50,2,gain,tc,1.0,0.6989613000041572,0.58,19,32,123_50
123,51,2,gain,tc,0.0,0.7088763999927323,0.53,39,74,123_51
123,52,2,gain,tc,0.0,0.8014960000000428,0.45,26,57,123_52
123,53,2,loss,tc,1.0,0.7021615999983624,0.36,-20,32,123_53
123,54,2,gain,tc,0.0,0.6674210000055609,0.1,6,56,123_54
123,55,2,loss,tc,1.0,0.950075000000652,0.46,-24,45,123_55
123,56,2,loss,tc,1.0,0.8793488999945112,0.17,-18,22,123_56
123,57,2,gain,tc,0.0,0.8092460999905597,0.25,22,88,123_57
123,58,2,gain,tc,,,0.1,7,69,123_58
123,61,2,gain,tc,0.0,0.7597698999888962,0.41,16,39,123_61
123,62,2,gain,tc,0.0,0.8723374000110198,0.64,35,55,123_62
123,63,2,gain,tc,0.0,0.8703277999884449,0.48,31,64,123_63
123,64,2,gain,tc,1.0,0.98616949999996,0.24,12,52,123_64
123,65,2,gain,tc,1.0,0.95553170000494,0.1,8,78,123_65
123,66,2,gain,tc,1.0,0.9248393000016222,0.57,24,42,123_66
123,67,2,loss,tc,,,0.25,-66,88,123_67
123,69,2,loss,tc,0.0,0.9739791000029072,0.58,-13,32,123_69
123,70,2,gain,tc,0.0,0.6432635999954073,0.51,40,78,123_70
123,71,2,gain,tc,0.0,0.7591880000109086,0.38,20,53,123_71
123,72,2,loss,tc,1.0,0.7231948999979068,0.3,-18,26,123_72
123,73,2,loss,tc,1.0,0.7937827999994624,0.78,-16,71,123_73
123,74,2,loss,tc,0.0,0.6463543999998365,0.35,-53,82,123_74
123,75,2,gain,tc,0.0,0.7169575000007171,0.28,22,78,123_75
123,76,2,loss,tc,1.0,0.9923154999996768,0.53,-35,74,123_76
123,78,2,loss,tc,1.0,0.8001581999997143,0.67,-21,64,123_78
123,79,2,loss,tc,0.0,0.8367660000076285,0.21,-55,69,123_79
123,81,3,gain,ntc,0.0,3.274230399998487,0.39,18,46,123_81
123,82,3,gain,ntc,0.0,2.3767624000029173,0.71,63,89,123_82
123,83,3,loss,ntc,1.0,2.6653764999937266,0.52,-40,83,123_83
123,84,3,loss,ntc,1.0,2.359940900001675,0.39,-13,22,123_84
123,85,3,gain,ntc,1.0,3.1465709999902174,0.39,33,85,123_85
123,86,3,loss,ntc,1.0,2.733847499999684,0.45,-19,35,123_86
123,87,3,gain,ntc,1.0,2.126445700007025,0.1,6,56,123_87
123,88,3,gain,ntc,1.0,1.9550217000069097,0.2,4,21,123_88
123,89,3,loss,ntc,1.0,3.124307799997041,0.1,-70,78,123_89
123,90,3,loss,ntc,0.0,4.0402512999862665,0.39,-52,86,123_90
123,91,3,loss,ntc,1.0,3.41747430000396,0.35,-28,43,123_91
123,92,3,gain,ntc,1.0,2.471990299993194,0.4,26,66,123_92
123,93,3,gain,ntc,0.0,2.8439693999971496,0.2,10,50,123_93
123,94,3,gain,ntc,0.0,1.1311959000013303,0.41,16,39,123_94
123,95,3,loss,ntc,1.0,1.1044894000078784,0.66,-22,64,123_95
123,96,3,gain,ntc,1.0,1.3317651000106707,0.35,29,82,123_96
123,97,3,loss,ntc,1.0,2.789080999995349,0.65,-12,33,123_97
123,98,3,gain,ntc,0.0,2.129639299993869,0.66,42,64,123_98
123,99,3,loss,ntc,1.0,1.494205700000748,0.14,-39,45,123_99
123,100,3,loss,ntc,1.0,1.8675115000078224,0.26,-26,35,123_100
123,101,3,loss,ntc,1.0,2.6247787999891443,0.25,-59,79,123_101
123,102,3,loss,ntc,0.0,2.195327900000848,0.24,-30,40,123_102
123,103,3,loss,ntc,0.0,4.9499503999977605,0.39,-28,46,123_103
123,104,3,loss,ntc,1.0,1.0945770999969682,0.39,-52,85,123_104
123,105,3,gain,ntc,0.0,1.4931807999964803,0.51,40,78,123_105
123,106,3,gain,ntc,0.0,1.3737170999957016,0.38,20,53,123_106
123,107,3,gain,ntc,1.0,1.3976451000053205,0.35,18,51,123_107
123,108,3,gain,ntc,1.0,2.4895713000005344,0.46,21,45,123_108
123,109,3,loss,ntc,1.0,1.990868799999589,0.45,-31,57,123_109
123,111,3,loss,ntc,0.0,2.8713659000059124,0.54,-33,71,123_111
123,112,3,gain,ntc,1.0,2.7286376999982167,0.24,10,40,123_112
123,113,3,gain,ntc,1.0,1.3558928999991622,0.25,20,79,123_113
123,114,3,loss,ntc,1.0,1.5231381000048714,0.76,-17,71,123_114
123,115,3,loss,ntc,0.0,1.6770403999980772,0.38,-52,84,123_115
123,116,3,loss,ntc,1.0,2.0076898999977857,0.41,-18,30,123_116
123,117,3,gain,ntc,1.0,2.286292199991294,0.76,54,71,123_117
123,118,3,loss,ntc,1.0,2.10354379999626,0.28,-56,78,123_118
123,119,3,gain,ntc,0.0,1.3328380000020843,0.63,34,54,123_119
123,120,3,gain,ntc,1.0,2.044079600003897,0.78,55,71,123_120
123,121,4,gain,tc,0.0,0.9062065000034636,0.65,23,36,123_121
123,122,4,loss,tc,1.0,0.7627880000072764,0.12,-75,85,123_122
123,123,4,loss,tc,0.0,0.7414087999932235,0.39,-43,70,123_123
123,124,4,gain,tc,0.0,0.5920751999947242,0.2,9,44,123_124
123,125,4,loss,tc,0.0,0.8233404000056908,0.52,-37,78,123_125
123,126,4,gain,tc,1.0,0.9245910000026925,0.3,8,26,123_126
123,127,4,gain,tc,1.0,0.8112404999992577,0.2,4,21,123_127
123,128,4,gain,tc,0.0,0.7605642999988049,0.25,20,79,123_128
123,130,4,gain,tc,0.0,0.8657757000037236,0.27,14,52,123_130
123,131,4,loss,tc,,,0.66,-22,64,123_131
123,134,4,gain,tc,,,0.2,10,50,123_134
123,135,4,gain,tc,1.0,0.7508147000044119,0.41,12,30,123_135
123,136,4,gain,tc,1.0,0.747382400004426,0.85,34,40,123_136
123,137,4,loss,tc,1.0,0.8453727000014624,0.52,-40,83,123_137
123,138,4,gain,tc,0.0,0.9232980999950088,0.4,26,66,123_138
123,139,4,loss,tc,,,0.35,-33,51,123_139
123,140,4,gain,tc,1.0,0.5131489000050351,0.71,63,89,123_140
123,141,4,gain,tc,0.0,0.6545077999908244,0.52,41,78,123_141
123,142,4,loss,tc,0.0,0.7424008999951184,0.38,-33,53,123_142
123,143,4,loss,tc,1.0,0.5957178999960888,0.24,-40,52,123_143
123,144,4,gain,tc,0.0,0.5976603000017349,0.34,23,69,123_144
123,145,4,gain,tc,0.0,0.3749826999992365,0.76,54,71,123_145
123,146,4,loss,tc,1.0,0.5742326000035973,0.48,-46,89,123_146
123,147,4,gain,tc,1.0,0.708821899999748,0.54,18,33,123_147
123,148,4,loss,tc,0.0,0.8221267000044463,0.46,-44,81,123_148
123,150,4,loss,tc,0.0,0.5173549000028288,0.34,-15,22,123_150
123,152,4,gain,tc,0.0,0.929986099989037,0.52,43,83,123_152
123,153,4,loss,tc,1.0,0.739867399999639,0.1,-62,69,123_153
123,154,4,loss,tc,,,0.65,-12,33,123_154
123,155,4,loss,tc,0.0,0.5504514000058407,0.2,-40,50,123_155
123,156,4,loss,tc,0.0,0.7176965000107884,0.28,-56,78,123_156
123,157,4,loss,tc,,,0.18,-41,50,123_157
123,158,4,loss,tc,1.0,0.7316380999982357,0.29,-33,47,123_158
123,159,4,gain,tc,0.0,0.6622307000070577,0.39,33,85,123_159
123,160,4,loss,tc,1.0,0.8675032000028295,0.57,-18,42,123_160
123,161,5,gain,ntc,1.0,2.014172299997881,0.34,26,76,123_161
123,163,5,loss,ntc,1.0,2.394717299990589,0.29,-62,88,123_163
123,164,5,loss,ntc,1.0,1.3786500999995042,0.18,-41,50,123_164
123,165,5,gain,ntc,1.0,1.1612371999945026,0.14,6,45,123_165
123,166,5,gain,ntc,1.0,1.4658735999983037,0.1,8,78,123_166
123,167,5,gain,ntc,1.0,1.5357465999986744,0.39,9,22,123_167
123,168,5,gain,ntc,0.0,0.7077387000026647,0.46,37,81,123_168
123,169,5,loss,ntc,1.0,1.3323546000028728,0.51,-41,83,123_169
123,170,5,gain,ntc,1.0,1.2389184999919962,0.25,22,88,123_170
123,171,5,loss,ntc,1.0,1.8115302000078373,0.21,-55,69,123_171
123,172,5,loss,ntc,1.0,1.8508363000000827,0.1,-62,69,123_172
123,173,5,loss,ntc,1.0,1.8840155000070808,0.4,-40,66,123_173
123,174,5,gain,ntc,1.0,2.2760011999926064,0.85,34,40,123_174
123,175,5,gain,ntc,0.0,1.903869300003862,0.27,14,52,123_175
123,176,5,gain,ntc,1.0,1.3679000999982236,0.2,9,44,123_176
123,177,5,loss,ntc,0.0,1.5037528999964709,0.3,-18,26,123_177
123,178,5,loss,ntc,1.0,1.37369469999976,0.2,-25,31,123_178
123,179,5,loss,ntc,1.0,2.544949799994356,0.29,-33,47,123_179
123,180,5,gain,ntc,1.0,1.6396054000069853,0.45,26,57,123_180
123,181,5,gain,ntc,0.0,1.414860699995188,0.24,12,52,123_181
123,182,5,gain,ntc,1.0,1.3141104000096675,0.51,24,47,123_182
123,184,5,gain,ntc,0.0,1.4319236000010278,0.39,27,70,123_184
123,185,5,gain,ntc,1.0,0.4172058000112884,0.64,35,55,123_185
123,186,5,gain,ntc,0.0,0.7371469999925466,0.45,16,35,123_186
123,187,5,gain,ntc,1.0,1.05045959999552,0.39,34,86,123_187
123,188,5,gain,ntc,0.0,1.4643819000048095,0.18,9,50,123_188
123,190,5,loss,ntc,1.0,1.676235999999335,0.2,-35,44,123_190
123,191,5,loss,ntc,1.0,1.0908693999954266,0.34,-50,76,123_191
123,192,5,loss,ntc,1.0,2.234803499988629,0.2,-17,21,123_192
123,194,5,gain,ntc,1.0,1.5773454000009224,0.51,42,83,123_194
123,195,5,loss,ntc,1.0,1.371285199988051,0.48,-46,89,123_195
123,196,5,loss,ntc,0.0,1.6931810000096448,0.35,-33,51,123_196
123,197,5,gain,ntc,1.0,1.347785199992359,0.52,43,83,123_197
123,198,5,gain,ntc,1.0,1.413678400000208,0.3,8,26,123_198
123,199,5,loss,ntc,1.0,1.9142856999969808,0.34,-46,69,123_199
123,200,5,loss,ntc,1.0,1.5561985000094865,0.25,-66,88,123_200
123,201,6,gain,tc,1.0,0.2601971999974921,0.46,37,81,123_201
123,202,6,gain,tc,1.0,0.2761107999976957,0.21,14,69,123_202
123,203,6,gain,tc,0.0,0.4920978000009199,0.65,21,33,123_203
123,204,6,loss,tc,1.0,0.6027503000077559,0.45,-31,57,123_204
123,206,6,gain,tc,0.0,0.4479446000041207,0.48,43,89,123_206
123,207,6,loss,tc,1.0,0.5026194000092801,0.14,-39,45,123_207
123,208,6,gain,tc,0.0,0.5279007000062848,0.46,21,45,123_208
123,209,6,loss,tc,1.0,0.699205199998687,0.26,-26,35,123_209
123,210,6,loss,tc,0.0,0.3677998999919509,0.51,-23,47,123_210
123,211,6,loss,tc,1.0,0.3890895999938948,0.45,-19,35,123_211
123,212,6,gain,tc,0.0,0.5096833999996306,0.14,6,45,123_212
123,213,6,loss,tc,1.0,0.7409982999961358,0.51,-41,83,123_213
123,214,6,loss,tc,1.0,0.7162830000015674,0.76,-17,71,123_214
123,215,6,gain,tc,0.0,0.7082132999930764,0.39,18,46,123_215
123,217,6,loss,tc,0.0,0.6808000000019092,0.27,-38,52,123_217
123,218,6,loss,tc,1.0,0.3493778999982169,0.54,-15,33,123_218
123,219,6,gain,tc,0.0,0.4880630999978166,0.63,34,54,123_219
123,221,6,loss,tc,,,0.2,-25,31,123_221
123,222,6,loss,tc,0.0,0.719204200009699,0.34,-46,69,123_222
123,223,6,gain,tc,0.0,0.405822899992927,0.66,42,64,123_223
123,224,6,gain,tc,0.0,0.4324611999909393,0.12,10,85,123_224
123,226,6,gain,tc,,,0.39,34,86,123_226
123,228,6,gain,tc,0.0,0.553547500006971,0.35,29,82,123_228
123,229,6,gain,tc,1.0,0.4961760000005597,0.54,38,71,123_229
123,230,6,loss,tc,1.0,0.7001553000009153,0.63,-20,54,123_230
123,231,6,loss,tc,0.0,0.8954264000058174,0.39,-28,46,123_231
123,232,6,gain,tc,0.0,0.582674200006295,0.34,26,76,123_232
123,233,6,loss,tc,,,0.39,-52,85,123_233
123,234,6,gain,tc,0.0,0.9639040999900316,0.39,27,70,123_234
123,235,6,loss,tc,1.0,0.576538299996173,0.24,-30,40,123_235
123,236,6,gain,tc,0.0,0.5704464000009466,0.43,16,38,123_236
123,237,6,gain,tc,1.0,0.5817708999966271,0.45,16,35,123_237
123,238,6,loss,tc,1.0,0.6437342999997782,0.41,-18,30,123_238
123,239,6,loss,tc,1.0,0.5336838999937754,0.64,-20,55,123_239
123,240,6,loss,tc,1.0,0.737573299993528,0.71,-26,89,123_240
123,241,7,gain,ntc,1.0,2.174173100007465,0.54,18,33,123_241
123,242,7,gain,ntc,0.0,1.1554294000088705,0.34,7,22,123_242
123,244,7,gain,ntc,0.0,2.0259929000021657,0.58,19,32,123_244
123,245,7,loss,ntc,0.0,1.3865528000023917,0.53,-35,74,123_245
123,246,7,gain,ntc,1.0,1.1411851000011666,0.34,23,69,123_246
123,247,7,gain,ntc,1.0,1.097110999995493,0.26,9,35,123_247
123,248,7,gain,ntc,1.0,1.6216538000007858,0.2,6,31,123_248
123,249,7,gain,ntc,1.0,1.5162956999993185,0.1,7,69,123_249
123,250,7,gain,ntc,1.0,1.2395982000016377,0.17,4,22,123_250
123,251,7,gain,ntc,0.0,0.7429062000010163,0.38,32,84,123_251
123,252,7,gain,ntc,0.0,1.0754480000032345,0.28,22,78,123_252
123,253,7,gain,ntc,1.0,0.8640143000084208,0.48,31,64,123_253
123,254,7,gain,ntc,1.0,1.217308499995852,0.43,16,38,123_254
123,255,7,loss,ntc,1.0,2.2093043999921065,0.1,-50,56,123_255
123,256,7,loss,ntc,0.0,1.5645804999949178,0.24,-40,52,123_256
123,258,7,loss,ntc,1.0,0.6983918999903835,0.85,-6,40,123_258
123,259,7,loss,ntc,1.0,1.7236361999966905,0.52,-37,78,123_259
123,260,7,loss,ntc,1.0,0.715622900010203,0.64,-20,55,123_260
123,261,7,gain,ntc,1.0,1.882147199998144,0.29,21,72,123_261
123,262,7,gain,ntc,0.0,1.5594802999985404,0.48,43,89,123_262
123,263,7,loss,ntc,1.0,0.815433399999165,0.46,-24,45,123_263
123,264,7,loss,ntc,0.0,2.2413499999966007,0.58,-13,32,123_264
123,265,7,loss,ntc,1.0,1.5299543000000997,0.67,-21,64,123_265
123,266,7,loss,ntc,0.0,1.9705248000100253,0.15,-60,70,123_266
123,267,7,loss,ntc,1.0,2.6444576000067173,0.12,-75,85,123_267
123,268,7,loss,ntc,0.0,1.301729400001932,0.71,-26,89,123_268
123,269,7,loss,ntc,1.0,2.785684999995283,0.17,-18,22,123_269
123,270,7,loss,ntc,1.0,1.5602482999966014,0.5,-43,86,123_270
123,271,7,gain,ntc,1.0,0.9935412000049836,0.53,39,74,123_271
123,272,7,loss,ntc,1.0,0.2560335999878589,0.28,-56,78,123_272
123,273,7,loss,ntc,1.0,1.93139529999462,0.2,-40,50,123_273
123,274,7,gain,ntc,0.0,1.260653099991032,0.52,41,78,123_274
123,275,7,loss,ntc,1.0,1.103247700011707,0.51,-38,78,123_275
123,276,7,loss,ntc,1.0,1.556512199997087,0.59,-27,65,123_276
123,277,7,loss,ntc,1.0,1.3957980999985011,0.65,-13,36,123_277
123,278,7,loss,ntc,1.0,2.550390599993989,0.27,-38,52,123_278
123,279,7,gain,ntc,0.0,2.434315099992091,0.28,6,21,123_279
123,280,7,gain,ntc,1.0,2.6822060999984387,0.54,38,71,123_280
123,281,8,gain,tc,0.0,0.5674637999909464,0.24,10,40,123_281
123,282,8,gain,tc,0.0,0.4814471999998204,0.28,6,21,123_282
123,283,8,loss,tc,0.0,0.6167175000009593,0.28,-56,78,123_283
123,284,8,loss,tc,1.0,0.8293306999985361,0.29,-51,72,123_284
123,285,8,loss,tc,1.0,0.4965465999994194,0.5,-43,86,123_285
123,287,8,loss,tc,0.0,0.8784054999996442,0.34,-50,76,123_287
123,288,8,loss,tc,,,0.43,-22,38,123_288
123,289,8,loss,tc,1.0,0.7497128999966662,0.29,-62,88,123_289
123,290,8,gain,tc,0.0,0.272339599992847,0.17,4,22,123_290
123,291,8,loss,tc,0.0,0.3222741000063251,0.25,-59,79,123_291
123,292,8,loss,tc,,,0.39,-52,86,123_292
123,293,8,gain,tc,1.0,0.9541880000033416,0.78,55,71,123_293
123,294,8,loss,tc,,,0.1,-50,56,123_294
123,295,8,loss,tc,1.0,0.5820139999996172,0.54,-33,71,123_295
123,296,8,gain,tc,0.0,0.8646850000077393,0.35,15,43,123_296
123,297,8,gain,tc,0.0,0.9019824999995762,0.29,21,72,123_297
123,298,8,loss,tc,,,0.2,-17,21,123_298
123,299,8,gain,tc,1.0,0.7824742999946466,0.15,10,70,123_299
123,300,8,gain,tc,1.0,0.7610758000082569,0.67,43,64,123_300
123,301,8,gain,tc,1.0,0.7050548000115668,0.59,38,65,123_301
123,302,8,gain,tc,1.0,0.8657053000060841,0.51,24,47,123_302
123,303,8,gain,tc,0.0,0.7176253000070574,0.26,9,35,123_303
123,304,8,gain,tc,1.0,0.7602738999994472,0.39,9,22,123_304
123,305,8,gain,tc,1.0,0.8788320000021486,0.38,32,84,123_305
123,306,8,loss,tc,1.0,0.6410546999977669,0.59,-27,65,123_306
123,307,8,loss,tc,1.0,0.6635147000051802,0.51,-38,78,123_307
123,308,8,gain,tc,0.0,0.6607578000111971,0.29,14,47,123_308
123,309,8,gain,tc,0.0,0.7567030999925919,0.35,18,51,123_309
123,310,8,gain,tc,,,0.34,7,22,123_310
123,311,8,gain,tc,,,0.5,43,86,123_311
123,312,8,loss,tc,1.0,0.2778185000061057,0.2,-35,44,123_312
123,313,8,loss,tc,1.0,0.582463300001109,0.65,-13,36,123_313
123,314,8,gain,tc,1.0,0.2564107000071089,0.2,6,31,123_314
123,315,8,gain,tc,1.0,0.3810035999922547,0.51,42,83,123_315
